Subject_ID,Age,Handedness,languageCount,musicInstrument,musicPractice,musicTraining,Trial Number,Target Angle,Hand Angle,RT,MT,Hand_Path,target_quadrant,hand_quadrant,formant_correct,frequency_correct,error_type,intended_target_angle,raw_error_from_wrong,angle_error_from_wrong,raw_error,angle_error,correct_target
164800,19,righth,3+,yes,0,"""0-1""",21,225,313.856777,3082,800,"{""first_y"": 518, ""first_x"": 915, ""sample_1_y"": 575, ""sample_0_y"": 518, ""sample_2_x"": 1026, ""sample_0_time"": 7, ""sample_4_x"": 1121, ""sample_3_x"": 1068, ""last_time"": 799, ""sample_3_y"": 672, ""first_time"": 7, ""sample_2_y"": 633, ""sample_1_x"": 964, ""last_y"": 732, ""last_x"": 1121, ""sample_1_time"": 199, ""sample_4_y"": 732, ""sample_3_time"": 608, ""count"": 94, ""sample_0_x"": 915, ""sample_2_time"": 424, ""sample_4_time"": 799}",Q3 (180-270<U+00B0>),Q4 (270-360<U+00B0>),FALSE,TRUE,Formant,315,1.1432229999999777,1.1432229999999777,88.85677700000002,88.85677700000002,FALSE
164800,19,righth,3+,yes,0,"""0-1""",22,225,222.4551956,149,883,"{""first_time"": 8, ""sample_2_y"": 613, ""count"": 99, ""first_y"": 512, ""sample_0_y"": 512, ""last_x"": 665, ""sample_4_time"": 883, ""sample_0_x"": 878, ""sample_1_time"": 233, ""sample_2_time"": 441, ""sample_0_time"": 8, ""sample_1_y"": 562, ""last_time"": 883, ""last_y"": 717, ""sample_4_y"": 717, ""sample_3_y"": 678, ""sample_1_x"": 831, ""sample_2_x"": 769, ""sample_3_time"": 650, ""first_x"": 878, ""sample_3_x"": 697, ""sample_4_x"": 665}",Q3 (180-270<U+00B0>),Q3 (180-270<U+00B0>),TRUE,TRUE,Correct,225,2.544804400000004,2.544804400000004,2.544804400000004,2.544804400000004,TRUE
164800,19,righth,3+,yes,0,"""0-1""",23,315,313.72697,2560,710,"{""first_y"": 519, ""last_y"": 732, ""sample_4_y"": 732, ""count"": 80, ""sample_2_time"": 360, ""sample_4_time"": 710, ""sample_0_x"": 916, ""sample_3_time"": 526, ""sample_1_x"": 956, ""sample_4_x"": 1120, ""sample_0_time"": 5, ""sample_3_x"": 1077, ""last_time"": 710, ""first_time"": 5, ""sample_2_x"": 1005, ""sample_2_y"": 642, ""first_x"": 916, ""last_x"": 1120, ""sample_1_time"": 190, ""sample_3_y"": 700, ""sample_1_y"": 575, ""sample_0_y"": 519}",Q4 (270-360<U+00B0>),Q4 (270-360<U+00B0>),TRUE,TRUE,Correct,315,1.2730300000000057,1.2730300000000057,1.2730300000000057,1.2730300000000057,TRUE
164800,19,righth,3+,yes,0,"""0-1""",24,45,131.0504344,2605,692,"{""last_x"": 691, ""sample_1_y"": 439, ""sample_1_time"": 183, ""sample_0_y"": 481, ""sample_1_x"": 852, ""sample_2_time"": 350, ""sample_4_y"": 262, ""first_y"": 481, ""sample_4_x"": 691, ""count"": 79, ""first_x"": 889, ""sample_0_time"": 8, ""sample_2_y"": 403, ""first_time"": 8, ""sample_3_time"": 515, ""sample_4_time"": 691, ""sample_3_x"": 727, ""sample_3_y"": 331, ""last_y"": 262, ""sample_2_x"": 804, ""sample_0_x"": 889, ""last_time"": 691}",Q1 (0-90<U+00B0>),Q2 (90-180<U+00B0>),FALSE,TRUE,Formant,135,3.9495655999999997,3.9495655999999997,86.0504344,86.0504344,FALSE
164800,19,righth,3+,yes,0,"""0-1""",25,225,311.2027521,2260,1195,"{""sample_1_time"": 299, ""sample_0_x"": 917, ""first_x"": 917, ""sample_4_time"": 1195, ""count"": 140, ""last_y"": 743, ""sample_3_y"": 700, ""sample_3_time"": 899, ""sample_1_y"": 595, ""sample_0_y"": 512, ""sample_2_time"": 607, ""sample_0_time"": 7, ""sample_3_x"": 1069, ""last_time"": 1195, ""first_time"": 7, ""sample_4_y"": 743, ""sample_1_x"": 976, ""sample_2_x"": 1025, ""sample_2_y"": 655, ""last_x"": 1111, ""first_y"": 512, ""sample_4_x"": 1111}",Q3 (180-270<U+00B0>),Q4 (270-360<U+00B0>),FALSE,TRUE,Formant,315,3.797247900000002,3.797247900000002,86.2027521,86.2027521,FALSE
164800,19,righth,3+,yes,0,"""0-1""",26,315,311.3045147,4277,1281,"{""sample_3_y"": 703, ""sample_0_x"": 921, ""sample_4_time"": 1281, ""sample_1_x"": 971, ""sample_2_x"": 1029, ""sample_0_y"": 519, ""last_y"": 741, ""sample_4_y"": 741, ""last_time"": 1281, ""sample_2_y"": 654, ""count"": 131, ""first_time"": 8, ""sample_4_x"": 1110, ""sample_2_time"": 550, ""sample_1_y"": 578, ""sample_3_time"": 842, ""first_y"": 519, ""sample_0_time"": 8, ""first_x"": 921, ""sample_3_x"": 1083, ""sample_1_time"": 275, ""last_x"": 1110}",Q4 (270-360<U+00B0>),Q4 (270-360<U+00B0>),TRUE,TRUE,Correct,315,3.695485299999973,3.695485299999973,3.695485299999973,3.695485299999973,TRUE
164800,19,righth,3+,yes,0,"""0-1""",27,225,213.1957245,2596,3482,"{""first_y"": 522, ""sample_2_y"": 723, ""sample_3_x"": 811, ""first_time"": 6, ""sample_1_y"": 647, ""sample_3_y"": 604, ""last_time"": 3482, ""sample_4_y"": 678, ""count"": 316, ""sample_4_time"": 3482, ""sample_2_time"": 1398, ""sample_4_x"": 631, ""sample_1_time"": 724, ""sample_3_time"": 2231, ""sample_2_x"": 676, ""sample_0_time"": 6, ""sample_1_x"": 729, ""sample_0_y"": 522, ""last_y"": 678, ""first_x"": 886, ""last_x"": 631, ""sample_0_x"": 886}",Q3 (180-270<U+00B0>),Q3 (180-270<U+00B0>),TRUE,TRUE,Correct,225,11.804275499999989,11.804275499999989,11.804275499999989,11.804275499999989,TRUE
164800,19,righth,3+,yes,0,"""0-1""",28,225,220.679195,2698,1075,"{""sample_4_time"": 1075, ""last_y"": 710, ""first_x"": 890, ""count"": 125, ""sample_3_y"": 661, ""sample_0_time"": 8, ""sample_3_time"": 817, ""sample_2_time"": 542, ""sample_2_x"": 789, ""sample_0_y"": 520, ""sample_4_y"": 710, ""first_y"": 520, ""sample_4_x"": 658, ""sample_1_time"": 283, ""last_x"": 658, ""first_time"": 8, ""sample_2_y"": 600, ""sample_0_x"": 890, ""sample_3_x"": 708, ""last_time"": 1075, ""sample_1_x"": 840, ""sample_1_y"": 572}",Q3 (180-270<U+00B0>),Q3 (180-270<U+00B0>),TRUE,TRUE,Correct,225,4.320805000000007,4.320805000000007,4.320805000000007,4.320805000000007,TRUE
164800,19,righth,3+,yes,0,"""0-1""",29,45,135.1270414,3285,1008,"{""sample_2_time"": 508, ""first_time"": 8, ""sample_0_y"": 496, ""sample_1_time"": 267, ""sample_3_x"": 703, ""sample_4_x"": 674, ""sample_4_y"": 277, ""sample_0_time"": 8, ""sample_1_x"": 841, ""last_x"": 674, ""sample_0_x"": 879, ""sample_2_x"": 749, ""last_time"": 1008, ""last_y"": 277, ""sample_2_y"": 344, ""first_x"": 879, ""sample_4_time"": 1008, ""sample_3_y"": 306, ""first_y"": 496, ""sample_1_y"": 469, ""sample_3_time"": 775, ""count"": 115}",Q1 (0-90<U+00B0>),Q2 (90-180<U+00B0>),FALSE,TRUE,Formant,135,0.12704139999999597,0.12704139999999597,90.1270414,90.1270414,FALSE
164800,19,righth,3+,yes,0,"""0-1""",30,45,47.15868588,2499,1149,"{""first_x"": 920, ""sample_0_y"": 499, ""sample_2_time"": 574, ""sample_1_time"": 300, ""sample_1_y"": 460, ""count"": 133, ""sample_3_time"": 874, ""last_y"": 268, ""sample_0_time"": 7, ""sample_3_x"": 1088, ""sample_2_y"": 368, ""sample_2_x"": 1033, ""first_time"": 7, ""first_y"": 499, ""sample_4_y"": 268, ""sample_1_x"": 965, ""sample_4_time"": 1148, ""sample_0_x"": 920, ""sample_4_x"": 1117, ""last_x"": 1117, ""last_time"": 1148, ""sample_3_y"": 303}",Q1 (0-90<U+00B0>),Q1 (0-90<U+00B0>),TRUE,TRUE,Correct,45,2.15868588,2.15868588,2.15868588,2.15868588,TRUE
164800,19,righth,3+,yes,0,"""0-1""",31,135,221.8272061,2969,3124,"{""sample_0_time"": 8, ""last_x"": 662, ""sample_2_y"": 479, ""sample_1_x"": 717, ""first_time"": 8, ""last_time"": 3123, ""last_y"": 715, ""sample_0_x"": 883, ""sample_4_y"": 715, ""count"": 323, ""sample_1_y"": 663, ""sample_0_y"": 517, ""sample_2_time"": 1428, ""sample_3_y"": 533, ""first_y"": 517, ""sample_4_time"": 3123, ""sample_3_x"": 858, ""sample_4_x"": 662, ""sample_3_time"": 2419, ""sample_1_time"": 711, ""sample_2_x"": 934, ""first_x"": 883}",Q2 (90-180<U+00B0>),Q3 (180-270<U+00B0>),TRUE,FALSE,Frequency,225,3.172793899999988,3.172793899999988,86.82720610000001,86.82720610000001,FALSE
164800,19,righth,3+,yes,0,"""0-1""",32,315,309.3907256,2666,1654,"{""sample_2_time"": 774, ""first_y"": 515, ""sample_3_y"": 716, ""sample_0_y"": 515, ""sample_1_y"": 578, ""count"": 181, ""sample_2_x"": 1024, ""sample_4_time"": 1654, ""sample_1_time"": 383, ""sample_2_y"": 650, ""last_y"": 748, ""last_x"": 1102, ""sample_4_x"": 1102, ""sample_3_time"": 1166, ""sample_4_y"": 748, ""first_time"": 8, ""first_x"": 917, ""sample_3_x"": 1070, ""sample_1_x"": 954, ""sample_0_x"": 917, ""last_time"": 1654, ""sample_0_time"": 8}",Q4 (270-360<U+00B0>),Q4 (270-360<U+00B0>),TRUE,TRUE,Correct,315,5.609274400000004,5.609274400000004,5.609274400000004,5.609274400000004,TRUE
164800,19,righth,3+,yes,0,"""0-1""",33,315,221.3208576,2292,954,"{""first_x"": 889, ""sample_4_time"": 954, ""last_time"": 954, ""sample_2_y"": 651, ""sample_2_x"": 744, ""sample_1_time"": 230, ""count"": 107, ""last_x"": 660, ""sample_4_y"": 713, ""sample_1_x"": 820, ""sample_0_y"": 523, ""first_time"": 8, ""sample_0_x"": 889, ""last_y"": 713, ""sample_1_y"": 583, ""sample_0_time"": 8, ""sample_3_time"": 712, ""first_y"": 523, ""sample_3_x"": 689, ""sample_4_x"": 660, ""sample_2_time"": 488, ""sample_3_y"": 688}",Q4 (270-360<U+00B0>),Q3 (180-270<U+00B0>),FALSE,TRUE,Formant,225,3.6791423999999893,3.6791423999999893,93.67914239999999,93.67914239999999,FALSE
164800,19,righth,3+,yes,0,"""0-1""",34,135,47.66594884,2990,1056,"{""sample_1_time"": 272, ""last_time"": 1055, ""sample_0_time"": 10, ""sample_2_y"": 376, ""count"": 117, ""sample_1_y"": 450, ""sample_2_x"": 1028, ""sample_0_x"": 918, ""first_y"": 491, ""last_x"": 1115, ""sample_2_time"": 513, ""sample_3_x"": 1089, ""sample_1_x"": 962, ""sample_4_y"": 266, ""first_time"": 10, ""sample_4_x"": 1115, ""sample_3_y"": 321, ""first_x"": 918, ""sample_0_y"": 491, ""sample_3_time"": 780, ""sample_4_time"": 1055, ""last_y"": 266}",Q2 (90-180<U+00B0>),Q1 (0-90<U+00B0>),FALSE,TRUE,Formant,45,2.6659488399999987,2.6659488399999987,87.33405116,87.33405116,FALSE
164800,19,righth,3+,yes,0,"""0-1""",35,225,308.2381099,2424,1292,"{""sample_2_y"": 665, ""sample_4_time"": 1292, ""sample_0_y"": 523, ""sample_2_time"": 662, ""sample_4_x"": 1097, ""last_x"": 1097, ""sample_0_x"": 913, ""sample_3_time"": 967, ""first_time"": 8, ""sample_3_x"": 1064, ""sample_3_y"": 710, ""sample_1_y"": 626, ""sample_1_time"": 333, ""last_time"": 1292, ""first_x"": 913, ""sample_2_x"": 1024, ""last_y"": 752, ""count"": 147, ""sample_4_y"": 752, ""first_y"": 523, ""sample_0_time"": 8, ""sample_1_x"": 978}",Q3 (180-270<U+00B0>),Q4 (270-360<U+00B0>),FALSE,TRUE,Formant,315,6.7618901000000164,6.7618901000000164,83.23810989999998,83.23810989999998,FALSE
164800,19,righth,3+,yes,0,"""0-1""",36,45,219.0765985,2462,2238,"{""count"": 227, ""last_time"": 2237, ""sample_4_y"": 705, ""sample_2_time"": 983, ""sample_1_y"": 640, ""sample_1_time"": 492, ""first_time"": 8, ""sample_1_x"": 746, ""sample_3_x"": 895, ""sample_3_y"": 523, ""sample_4_time"": 2237, ""sample_0_time"": 8, ""sample_0_x"": 892, ""first_y"": 523, ""sample_2_x"": 689, ""sample_4_x"": 650, ""sample_3_time"": 1525, ""last_x"": 650, ""first_x"": 892, ""sample_0_y"": 523, ""sample_2_y"": 704, ""last_y"": 705}",Q1 (0-90<U+00B0>),Q3 (180-270<U+00B0>),FALSE,FALSE,Both,225,5.923401500000011,5.923401500000011,174.0765985,174.0765985,FALSE
164800,19,righth,3+,yes,0,"""0-1""",37,225,219.644175,2408,1115,"{""sample_4_x"": 655, ""sample_0_y"": 520, ""sample_1_x"": 780, ""sample_3_x"": 671, ""sample_4_time"": 1115, ""sample_3_y"": 688, ""sample_4_y"": 705, ""sample_0_x"": 879, ""sample_2_x"": 704, ""first_x"": 879, ""last_time"": 1115, ""last_y"": 705, ""sample_0_time"": 7, ""count"": 129, ""last_x"": 655, ""first_time"": 7, ""sample_3_time"": 832, ""sample_1_y"": 590, ""sample_1_time"": 274, ""sample_2_time"": 557, ""sample_2_y"": 652, ""first_y"": 520}",Q3 (180-270<U+00B0>),Q3 (180-270<U+00B0>),TRUE,TRUE,Correct,225,5.35582500000001,5.35582500000001,5.35582500000001,5.35582500000001,TRUE
164800,19,righth,3+,yes,0,"""0-1""",38,135,129.7825607,2452,767,"{""sample_3_y"": 292, ""sample_0_y"": 489, ""sample_3_x"": 718, ""sample_4_y"": 257, ""count"": 89, ""sample_1_x"": 821, ""sample_2_time"": 375, ""sample_0_time"": 9, ""sample_4_x"": 696, ""sample_1_time"": 192, ""sample_2_x"": 751, ""sample_3_time"": 583, ""last_x"": 696, ""first_time"": 9, ""first_x"": 881, ""sample_4_time"": 767, ""sample_0_x"": 881, ""last_time"": 767, ""first_y"": 489, ""last_y"": 257, ""sample_2_y"": 340, ""sample_1_y"": 421}",Q2 (90-180<U+00B0>),Q2 (90-180<U+00B0>),TRUE,TRUE,Correct,135,5.217439299999995,5.217439299999995,5.217439299999995,5.217439299999995,TRUE
164800,19,righth,3+,yes,0,"""0-1""",39,225,222.5876353,2348,909,"{""sample_2_y"": 642, ""sample_1_x"": 749, ""first_y"": 510, ""count"": 101, ""last_time"": 909, ""sample_1_y"": 605, ""sample_4_time"": 909, ""sample_2_x"": 709, ""sample_4_y"": 718, ""sample_3_x"": 681, ""sample_0_time"": 8, ""sample_0_x"": 875, ""sample_1_time"": 246, ""last_y"": 718, ""sample_4_x"": 665, ""sample_0_y"": 510, ""first_x"": 875, ""sample_3_time"": 682, ""sample_2_time"": 454, ""first_time"": 8, ""sample_3_y"": 689, ""last_x"": 665}",Q3 (180-270<U+00B0>),Q3 (180-270<U+00B0>),TRUE,TRUE,Correct,225,2.412364700000012,2.412364700000012,2.412364700000012,2.412364700000012,TRUE
164800,19,righth,3+,yes,0,"""0-1""",40,315,308.2381099,2437,1567,"{""sample_4_time"": 1567, ""sample_3_y"": 739, ""sample_1_time"": 358, ""sample_2_y"": 703, ""sample_3_x"": 1080, ""sample_0_time"": 8, ""sample_1_y"": 634, ""sample_0_y"": 524, ""last_y"": 752, ""sample_4_y"": 752, ""first_y"": 524, ""sample_3_time"": 1117, ""last_time"": 1567, ""sample_2_x"": 1058, ""sample_2_time"": 717, ""sample_4_x"": 1097, ""count"": 164, ""sample_1_x"": 1007, ""sample_0_x"": 907, ""last_x"": 1097, ""first_time"": 8, ""first_x"": 907}",Q4 (270-360<U+00B0>),Q4 (270-360<U+00B0>),TRUE,TRUE,Correct,315,6.7618901000000164,6.7618901000000164,6.7618901000000164,6.7618901000000164,TRUE
164800,19,righth,3+,yes,0,"""0-1""",41,135,219.0505187,2407,2720,"{""sample_4_y"": 704, ""sample_4_x"": 651, ""first_x"": 889, ""sample_1_y"": 668, ""sample_3_x"": 776, ""sample_2_x"": 669, ""last_time"": 2720, ""sample_1_x"": 698, ""sample_0_y"": 522, ""first_time"": 8, ""sample_3_y"": 592, ""sample_0_time"": 8, ""last_x"": 651, ""sample_2_time"": 1354, ""sample_4_time"": 2720, ""last_y"": 704, ""sample_2_y"": 700, ""sample_0_x"": 889, ""first_y"": 522, ""sample_3_time"": 2117, ""sample_1_time"": 572, ""count"": 263}",Q2 (90-180<U+00B0>),Q3 (180-270<U+00B0>),TRUE,FALSE,Frequency,225,5.949481300000002,5.949481300000002,84.0505187,84.0505187,FALSE
164800,19,righth,3+,yes,0,"""0-1""",42,45,139.0675196,2723,625,"{""sample_2_time"": 309, ""sample_4_y"": 293, ""sample_0_y"": 483, ""last_time"": 625, ""sample_3_y"": 319, ""sample_1_x"": 814, ""first_x"": 883, ""sample_3_time"": 475, ""first_time"": 10, ""sample_3_x"": 690, ""sample_1_time"": 159, ""first_y"": 483, ""sample_2_x"": 737, ""sample_4_time"": 625, ""sample_4_x"": 659, ""sample_1_y"": 425, ""count"": 73, ""last_x"": 659, ""sample_2_y"": 365, ""sample_0_time"": 10, ""sample_0_x"": 883, ""last_y"": 293}",Q1 (0-90<U+00B0>),Q2 (90-180<U+00B0>),FALSE,TRUE,Formant,135,4.067519599999997,4.067519599999997,94.0675196,94.0675196,FALSE
164800,19,righth,3+,yes,0,"""0-1""",43,315,223.2180394,2848,904,"{""sample_3_y"": 689, ""sample_1_time"": 316, ""sample_2_time"": 504, ""first_x"": 876, ""sample_2_y"": 634, ""first_time"": 8, ""sample_1_y"": 525, ""last_x"": 668, ""sample_0_x"": 876, ""count"": 91, ""last_time"": 904, ""sample_0_y"": 506, ""sample_1_x"": 855, ""last_y"": 720, ""sample_2_x"": 733, ""first_y"": 506, ""sample_4_y"": 720, ""sample_3_x"": 687, ""sample_0_time"": 8, ""sample_3_time"": 696, ""sample_4_x"": 668, ""sample_4_time"": 904}",Q4 (270-360<U+00B0>),Q3 (180-270<U+00B0>),FALSE,TRUE,Formant,225,1.7819605999999908,1.7819605999999908,91.78196059999999,91.78196059999999,FALSE
164800,19,righth,3+,yes,0,"""0-1""",44,225,227.1586859,2382,1021,"{""sample_2_y"": 621, ""sample_3_y"": 708, ""sample_3_x"": 705, ""first_x"": 880, ""sample_1_y"": 540, ""sample_0_time"": 8, ""first_y"": 501, ""first_time"": 8, ""count"": 118, ""sample_0_y"": 501, ""sample_4_x"": 683, ""sample_4_y"": 736, ""sample_3_time"": 779, ""sample_1_x"": 826, ""sample_2_time"": 516, ""last_x"": 683, ""sample_2_x"": 768, ""last_y"": 736, ""sample_0_x"": 880, ""sample_4_time"": 1020, ""sample_1_time"": 266, ""last_time"": 1020}",Q3 (180-270<U+00B0>),Q3 (180-270<U+00B0>),TRUE,TRUE,Correct,225,2.1586858999999947,2.1586858999999947,2.1586858999999947,2.1586858999999947,TRUE
164800,19,righth,3+,yes,0,"""0-1""",45,315,314.1107799,2620,990,"{""sample_3_x"": 1105, ""sample_4_y"": 731, ""count"": 112, ""sample_4_x"": 1122, ""sample_2_y"": 633, ""first_time"": 8, ""sample_1_y"": 595, ""sample_0_x"": 919, ""first_y"": 516, ""last_x"": 1122, ""sample_2_time"": 508, ""sample_0_y"": 516, ""sample_0_time"": 8, ""last_time"": 990, ""sample_3_y"": 680, ""sample_3_time"": 741, ""sample_4_time"": 990, ""sample_1_x"": 1015, ""first_x"": 919, ""last_y"": 731, ""sample_1_time"": 241, ""sample_2_x"": 1071}",Q4 (270-360<U+00B0>),Q4 (270-360<U+00B0>),TRUE,TRUE,Correct,315,0.8892200999999886,0.8892200999999886,0.8892200999999886,0.8892200999999886,TRUE
164800,19,righth,3+,yes,0,"""0-1""",46,45,50.60927445,2807,1541,"{""sample_4_x"": 1102, ""last_x"": 1102, ""sample_2_y"": 321, ""first_y"": 491, ""sample_4_time"": 1541, ""sample_3_time"": 804, ""sample_2_time"": 550, ""sample_3_y"": 288, ""last_y"": 256, ""sample_4_y"": 256, ""count"": 126, ""sample_0_x"": 925, ""first_x"": 925, ""sample_2_x"": 1053, ""sample_1_time"": 266, ""sample_1_x"": 992, ""sample_0_time"": 8, ""sample_1_y"": 425, ""first_time"": 8, ""sample_0_y"": 491, ""sample_3_x"": 1077, ""last_time"": 1541}",Q1 (0-90<U+00B0>),Q1 (0-90<U+00B0>),TRUE,TRUE,Correct,45,5.609274450000001,5.609274450000001,5.609274450000001,5.609274450000001,TRUE
164800,19,righth,3+,yes,0,"""0-1""",47,225,312.4551956,2278,1143,"{""sample_2_y"": 672, ""sample_4_x"": 1115, ""sample_3_y"": 707, ""last_y"": 737, ""sample_3_x"": 1097, ""sample_1_y"": 604, ""first_x"": 900, ""last_time"": 1142, ""sample_0_x"": 900, ""first_y"": 523, ""sample_4_y"": 737, ""sample_0_time"": 8, ""last_x"": 1115, ""sample_4_time"": 1142, ""sample_0_y"": 523, ""sample_1_time"": 279, ""sample_2_x"": 1060, ""sample_2_time"": 576, ""count"": 132, ""sample_3_time"": 850, ""sample_1_x"": 977, ""first_time"": 8}",Q3 (180-270<U+00B0>),Q4 (270-360<U+00B0>),FALSE,TRUE,Formant,315,2.5448043999999754,2.5448043999999754,87.45519560000002,87.45519560000002,FALSE
164800,19,righth,3+,yes,0,"""0-1""",48,135,135,2636,743,"{""sample_1_y"": 395, ""sample_0_time"": 8, ""last_y"": 276, ""sample_2_x"": 733, ""count"": 84, ""last_time"": 743, ""sample_1_x"": 812, ""first_y"": 483, ""sample_0_x"": 882, ""sample_4_time"": 743, ""sample_2_y"": 340, ""sample_3_x"": 703, ""sample_1_time"": 208, ""sample_3_y"": 311, ""sample_4_y"": 276, ""sample_3_time"": 558, ""first_time"": 8, ""sample_2_time"": 383, ""first_x"": 882, ""sample_4_x"": 674, ""sample_0_y"": 483, ""last_x"": 674}",Q2 (90-180<U+00B0>),Q2 (90-180<U+00B0>),TRUE,TRUE,Correct,135,0,0,0,0,TRUE
164800,19,righth,3+,yes,0,"""0-1""",49,135,49.51398846,2424,2699,"{""sample_4_time"": 2699, ""first_time"": 7, ""sample_0_y"": 486, ""last_x"": 1110, ""count"": 240, ""sample_1_time"": 532, ""sample_0_time"": 7, ""sample_1_x"": 1039, ""sample_2_time"": 1048, ""sample_1_y"": 325, ""sample_3_y"": 296, ""sample_2_y"": 290, ""last_time"": 2699, ""last_y"": 256, ""sample_3_x"": 1070, ""sample_4_y"": 256, ""sample_4_x"": 1110, ""sample_0_x"": 916, ""sample_2_x"": 1075, ""sample_3_time"": 2023, ""first_y"": 486, ""first_x"": 916}",Q2 (90-180<U+00B0>),Q1 (0-90<U+00B0>),FALSE,TRUE,Formant,45,4.51398846,4.51398846,85.48601153999999,85.48601153999999,FALSE
164800,19,righth,3+,yes,0,"""0-1""",50,225,226.27303,2577,1759,"{""last_x"": 680, ""sample_0_y"": 523, ""sample_4_y"": 732, ""sample_1_x"": 796, ""last_y"": 732, ""sample_0_x"": 885, ""count"": 151, ""sample_3_time"": 1010, ""sample_3_y"": 711, ""first_x"": 885, ""first_y"": 523, ""sample_1_y"": 608, ""sample_2_y"": 694, ""last_time"": 1758, ""sample_3_x"": 691, ""sample_2_time"": 645, ""sample_1_time"": 332, ""sample_2_x"": 707, ""sample_4_x"": 680, ""first_time"": 8, ""sample_4_time"": 1758, ""sample_0_time"": 8}",Q3 (180-270<U+00B0>),Q3 (180-270<U+00B0>),TRUE,TRUE,Correct,225,1.2730300000000057,1.2730300000000057,1.2730300000000057,1.2730300000000057,TRUE
164800,19,righth,3+,yes,0,"""0-1""",51,135,313.2180394,2365,937,"{""sample_0_x"": 922, ""sample_2_y"": 682, ""first_time"": 8, ""sample_2_time"": 479, ""sample_1_y"": 606, ""sample_3_time"": 720, ""count"": 107, ""sample_4_y"": 734, ""sample_2_x"": 1083, ""last_x"": 1118, ""first_y"": 517, ""sample_4_time"": 937, ""sample_0_y"": 517, ""first_x"": 922, ""last_time"": 937, ""sample_1_time"": 254, ""sample_0_time"": 8, ""last_y"": 734, ""sample_3_x"": 1102, ""sample_3_y"": 715, ""sample_4_x"": 1118, ""sample_1_x"": 1018}",Q2 (90-180<U+00B0>),Q4 (270-360<U+00B0>),FALSE,FALSE,Both,315,1.7819605999999908,1.7819605999999908,178.2180394,178.2180394,FALSE
164800,19,righth,3+,yes,0,"""0-1""",52,225,137.5335589,2549,791,"{""sample_2_time"": 391, ""count"": 89, ""last_time"": 791, ""sample_4_time"": 791, ""sample_4_x"": 664, ""sample_2_x"": 728, ""sample_0_x"": 879, ""first_x"": 879, ""first_y"": 498, ""sample_3_x"": 684, ""sample_1_y"": 431, ""last_y"": 286, ""sample_2_y"": 366, ""sample_4_y"": 286, ""sample_1_x"": 794, ""sample_0_y"": 498, ""sample_3_time"": 574, ""sample_0_time"": 8, ""first_time"": 8, ""sample_3_y"": 322, ""sample_1_time"": 190, ""last_x"": 664}",Q3 (180-270<U+00B0>),Q2 (90-180<U+00B0>),TRUE,FALSE,Frequency,135,2.5335589000000027,2.5335589000000027,87.4664411,87.4664411,FALSE
164800,19,righth,3+,yes,0,"""0-1""",53,45,49.82685878,2407,1399,"{""last_y"": 258, ""sample_3_y"": 285, ""last_time"": 1399, ""sample_1_y"": 389, ""first_x"": 922, ""sample_2_time"": 716, ""sample_2_y"": 314, ""last_x"": 1106, ""sample_4_x"": 1106, ""sample_3_x"": 1087, ""sample_1_x"": 1002, ""sample_3_time"": 1049, ""sample_0_x"": 922, ""sample_0_time"": 8, ""first_y"": 494, ""sample_2_x"": 1066, ""sample_4_y"": 258, ""sample_4_time"": 1399, ""sample_1_time"": 366, ""count"": 160, ""sample_0_y"": 494, ""first_time"": 8}",Q1 (0-90<U+00B0>),Q1 (0-90<U+00B0>),TRUE,TRUE,Correct,45,4.826858780000002,4.826858780000002,4.826858780000002,4.826858780000002,TRUE
164800,19,righth,3+,yes,0,"""0-1""",54,45,52.01455919,2375,1994,"{""last_x"": 1096, ""sample_4_y"": 251, ""sample_2_x"": 1063, ""last_time"": 1994, ""first_x"": 920, ""sample_0_x"": 920, ""sample_1_x"": 1016, ""sample_3_y"": 276, ""first_time"": 9, ""first_y"": 488, ""sample_2_y"": 300, ""sample_3_x"": 1082, ""sample_0_time"": 9, ""sample_3_time"": 1185, ""sample_4_x"": 1096, ""last_y"": 251, ""sample_0_y"": 488, ""sample_2_time"": 777, ""count"": 183, ""sample_1_time"": 381, ""sample_1_y"": 377, ""sample_4_time"": 1994}",Q1 (0-90<U+00B0>),Q1 (0-90<U+00B0>),TRUE,TRUE,Correct,45,7.01455919,7.01455919,7.01455919,7.01455919,TRUE
164800,19,righth,3+,yes,0,"""0-1""",55,135,134.6188807,2347,413,"{""sample_4_y"": 275, ""sample_1_y"": 441, ""first_y"": 483, ""sample_0_x"": 883, ""sample_0_time"": 7, ""sample_4_time"": 412, ""sample_2_y"": 382, ""sample_2_x"": 754, ""first_time"": 7, ""sample_0_y"": 483, ""sample_3_y"": 317, ""sample_4_x"": 676, ""count"": 47, ""first_x"": 883, ""last_x"": 676, ""sample_3_x"": 693, ""sample_1_time"": 100, ""last_time"": 412, ""sample_3_time"": 316, ""sample_1_x"": 825, ""sample_2_time"": 199, ""last_y"": 275}",Q2 (90-180<U+00B0>),Q2 (90-180<U+00B0>),TRUE,TRUE,Correct,135,0.3811192999999946,0.3811192999999946,0.3811192999999946,0.3811192999999946,TRUE
164800,19,righth,3+,yes,0,"""0-1""",56,225,138.5447665,323,492,"{""count"": 54, ""sample_2_x"": 754, ""sample_0_time"": 17, ""sample_4_y"": 290, ""sample_3_y"": 342, ""sample_2_y"": 382, ""last_x"": 660, ""first_time"": 17, ""sample_1_y"": 448, ""sample_1_time"": 125, ""sample_0_y"": 487, ""sample_0_x"": 882, ""sample_2_time"": 242, ""last_y"": 290, ""sample_3_time"": 350, ""sample_4_x"": 660, ""last_time"": 492, ""sample_3_x"": 713, ""sample_4_time"": 492, ""first_y"": 487, ""sample_1_x"": 829, ""first_x"": 882}",Q3 (180-270<U+00B0>),Q2 (90-180<U+00B0>),TRUE,FALSE,Frequency,135,3.5447665000000086,3.5447665000000086,86.45523349999999,86.45523349999999,FALSE
164800,19,righth,3+,yes,0,"""0-1""",57,225,227.0363255,2829,2375,"{""sample_1_y"": 565, ""first_time"": 9, ""last_y"": 735, ""sample_2_y"": 540, ""last_time"": 2374, ""count"": 240, ""sample_2_time"": 1292, ""first_x"": 905, ""sample_3_y"": 631, ""sample_4_time"": 2374, ""last_x"": 683, ""sample_1_time"": 688, ""first_y"": 522, ""sample_0_time"": 9, ""sample_3_x"": 769, ""sample_4_y"": 735, ""sample_2_x"": 887, ""sample_4_x"": 683, ""sample_1_x"": 860, ""sample_0_x"": 905, ""sample_0_y"": 522, ""sample_3_time"": 1890}",Q3 (180-270<U+00B0>),Q3 (180-270<U+00B0>),TRUE,TRUE,Correct,225,2.036325500000004,2.036325500000004,2.036325500000004,2.036325500000004,TRUE
164800,19,righth,3+,yes,0,"""0-1""",58,45,313.6150971,4291,1257,"{""last_x"": 1122, ""sample_2_x"": 1042, ""last_time"": 1257, ""sample_0_x"": 913, ""sample_1_time"": 298, ""sample_4_y"": 735, ""sample_2_time"": 615, ""sample_4_x"": 1122, ""first_y"": 522, ""sample_3_y"": 698, ""count"": 140, ""first_time"": 7, ""first_x"": 913, ""sample_2_y"": 639, ""sample_3_x"": 1086, ""sample_0_time"": 7, ""sample_3_time"": 907, ""sample_4_time"": 1257, ""sample_0_y"": 522, ""last_y"": 735, ""sample_1_x"": 958, ""sample_1_y"": 564}",Q1 (0-90<U+00B0>),Q4 (270-360<U+00B0>),TRUE,FALSE,Frequency,315,1.384902899999986,1.384902899999986,268.6150971,91.38490289999999,FALSE
164800,19,righth,3+,yes,0,"""0-1""",59,135,218.8844964,5471,774,"{""sample_4_y"": 702, ""sample_3_y"": 664, ""sample_3_time"": 599, ""sample_4_time"": 774, ""sample_0_x"": 888, ""sample_0_time"": 24, ""first_y"": 521, ""first_time"": 24, ""sample_0_y"": 521, ""last_y"": 702, ""sample_3_x"": 695, ""sample_1_time"": 208, ""sample_2_x"": 792, ""sample_1_x"": 821, ""sample_4_x"": 652, ""sample_1_y"": 566, ""count"": 88, ""first_x"": 888, ""last_time"": 774, ""sample_2_y"": 586, ""sample_2_time"": 391, ""last_x"": 652}",Q2 (90-180<U+00B0>),Q3 (180-270<U+00B0>),TRUE,FALSE,Frequency,225,6.115503600000011,6.115503600000011,83.88449639999999,83.88449639999999,FALSE
164800,19,righth,3+,yes,0,"""0-1""",60,315,43.48592664,2752,3108,"{""sample_3_y"": 509, ""sample_4_y"": 281, ""sample_4_x"": 1133, ""last_time"": 3108, ""sample_2_x"": 1029, ""sample_2_time"": 1645, ""sample_3_x"": 909, ""sample_1_time"": 616, ""sample_1_y"": 346, ""sample_1_x"": 1011, ""last_y"": 281, ""sample_2_y"": 362, ""sample_4_time"": 3108, ""sample_3_time"": 2421, ""last_x"": 1133, ""first_time"": 8, ""first_y"": 482, ""count"": 280, ""sample_0_time"": 8, ""first_x"": 895, ""sample_0_y"": 482, ""sample_0_x"": 895}",Q4 (270-360<U+00B0>),Q1 (0-90<U+00B0>),TRUE,FALSE,Frequency,45,1.5140733599999976,1.5140733599999976,271.51407336,88.48592664,FALSE
164800,19,righth,3+,yes,0,"""0-1""",61,135,219.4154977,2527,808,"{""sample_3_x"": 691, ""count"": 93, ""sample_0_time"": 8, ""last_y"": 705, ""last_time"": 808, ""sample_1_y"": 566, ""sample_1_x"": 824, ""sample_3_y"": 660, ""sample_0_y"": 516, ""sample_3_time"": 616, ""sample_0_x"": 882, ""sample_1_time"": 216, ""sample_4_x"": 653, ""sample_2_y"": 595, ""sample_2_x"": 776, ""sample_2_time"": 408, ""first_y"": 516, ""first_time"": 8, ""sample_4_y"": 705, ""last_x"": 653, ""sample_4_time"": 808, ""first_x"": 882}",Q2 (90-180<U+00B0>),Q3 (180-270<U+00B0>),TRUE,FALSE,Frequency,225,5.584502299999997,5.584502299999997,84.4154977,84.4154977,FALSE
164800,19,righth,3+,yes,0,"""0-1""",62,135,307.623274,3504,791,"{""sample_2_time"": 415, ""last_y"": 755, ""sample_2_y"": 690, ""sample_0_y"": 524, ""sample_1_y"": 628, ""sample_2_x"": 1042, ""first_x"": 908, ""count"": 91, ""sample_1_time"": 207, ""sample_0_time"": 8, ""sample_3_x"": 1082, ""last_x"": 1095, ""last_time"": 791, ""first_y"": 524, ""sample_4_time"": 791, ""sample_4_y"": 755, ""first_time"": 8, ""sample_1_x"": 979, ""sample_4_x"": 1095, ""sample_0_x"": 908, ""sample_3_y"": 730, ""sample_3_time"": 607}",Q2 (90-180<U+00B0>),Q4 (270-360<U+00B0>),FALSE,FALSE,Both,315,7.376726000000019,7.376726000000019,172.62327399999998,172.62327399999998,FALSE
164800,19,righth,3+,yes,0,"""0-1""",63,45,132.2011015,2485,543,"{""last_y"": 266, ""sample_4_time"": 543, ""sample_4_x"": 686, ""sample_1_x"": 764, ""sample_4_y"": 266, ""last_time"": 543, ""first_time"": 2, ""first_y"": 446, ""sample_2_time"": 267, ""sample_2_x"": 733, ""sample_1_y"": 339, ""sample_1_time"": 134, ""sample_0_y"": 446, ""sample_0_time"": 2, ""sample_3_x"": 714, ""sample_0_x"": 858, ""count"": 64, ""sample_3_y"": 284, ""first_x"": 858, ""sample_3_time"": 401, ""last_x"": 686, ""sample_2_y"": 301}",Q1 (0-90<U+00B0>),Q2 (90-180<U+00B0>),FALSE,TRUE,Formant,135,2.798898500000007,2.798898500000007,87.2011015,87.2011015,FALSE
164800,19,righth,3+,yes,0,"""0-1""",64,45,312.4664411,2344,584,"{""sample_0_y"": 514, ""sample_4_y"": 738, ""sample_4_time"": 584, ""sample_3_time"": 450, ""sample_1_time"": 150, ""sample_0_time"": 9, ""sample_1_x"": 1008, ""sample_4_x"": 1116, ""last_time"": 584, ""count"": 68, ""last_x"": 1116, ""sample_3_y"": 700, ""sample_1_y"": 605, ""sample_2_time"": 309, ""first_y"": 514, ""first_x"": 921, ""sample_3_x"": 1090, ""last_y"": 738, ""first_time"": 9, ""sample_2_y"": 658, ""sample_2_x"": 1047, ""sample_0_x"": 921}",Q1 (0-90<U+00B0>),Q4 (270-360<U+00B0>),TRUE,FALSE,Frequency,315,2.5335589000000027,2.5335589000000027,267.4664411,92.5335589,FALSE
164800,19,righth,3+,yes,0,"""0-1""",65,315,220.581951,2435,2367,"{""last_y"": 711, ""sample_2_time"": 1296, ""last_x"": 656, ""sample_0_x"": 878, ""sample_1_time"": 448, ""sample_1_y"": 677, ""sample_3_x"": 692, ""sample_3_time"": 1750, ""sample_2_y"": 699, ""first_y"": 521, ""sample_2_x"": 669, ""sample_4_y"": 711, ""sample_1_x"": 683, ""sample_4_x"": 656, ""sample_4_time"": 2367, ""last_time"": 2367, ""sample_0_time"": 8, ""first_x"": 878, ""sample_3_y"": 677, ""count"": 194, ""sample_0_y"": 521, ""first_time"": 8}",Q4 (270-360<U+00B0>),Q3 (180-270<U+00B0>),FALSE,TRUE,Formant,225,4.418048999999996,4.418048999999996,94.418049,94.418049,FALSE
164800,19,righth,3+,yes,0,"""0-1""",66,135,308.7718781,2652,562,"{""count"": 66, ""sample_0_y"": 525, ""first_y"": 525, ""sample_1_y"": 608, ""first_x"": 906, ""sample_3_time"": 433, ""sample_4_x"": 1100, ""sample_2_y"": 648, ""last_y"": 751, ""sample_1_x"": 974, ""last_x"": 1100, ""sample_4_time"": 562, ""sample_0_time"": 9, ""sample_3_x"": 1074, ""sample_4_y"": 751, ""sample_0_x"": 906, ""first_time"": 9, ""sample_1_time"": 142, ""sample_2_time"": 284, ""sample_2_x"": 1014, ""last_time"": 562, ""sample_3_y"": 706}",Q2 (90-180<U+00B0>),Q4 (270-360<U+00B0>),FALSE,FALSE,Both,315,6.228121900000019,6.228121900000019,173.77187809999998,173.77187809999998,FALSE
164800,19,righth,3+,yes,0,"""0-1""",67,315,213.8891832,2431,359,"{""sample_1_x"": 857, ""sample_2_y"": 590, ""sample_1_time"": 84, ""sample_4_y"": 680, ""last_x"": 635, ""sample_0_y"": 523, ""sample_4_time"": 358, ""last_y"": 680, ""sample_3_x"": 697, ""first_time"": 8, ""first_x"": 894, ""sample_0_x"": 894, ""sample_3_y"": 646, ""sample_2_x"": 777, ""first_y"": 523, ""count"": 39, ""sample_0_time"": 8, ""sample_4_x"": 635, ""sample_2_time"": 183, ""sample_3_time"": 263, ""last_time"": 358, ""sample_1_y"": 546}",Q4 (270-360<U+00B0>),Q3 (180-270<U+00B0>),FALSE,TRUE,Formant,225,11.11081680000001,11.11081680000001,101.11081680000001,101.11081680000001,FALSE
164800,19,righth,3+,yes,0,"""0-1""",68,135,218.2679527,65,509,"{""sample_2_x"": 765, ""last_time"": 509, ""sample_2_time"": 250, ""sample_4_time"": 509, ""sample_1_x"": 805, ""sample_4_x"": 649, ""first_y"": 530, ""last_y"": 700, ""last_x"": 649, ""sample_3_x"": 674, ""first_time"": 17, ""sample_3_y"": 682, ""sample_4_y"": 700, ""sample_3_time"": 367, ""count"": 56, ""sample_0_y"": 530, ""first_x"": 886, ""sample_0_time"": 17, ""sample_2_y"": 620, ""sample_1_time"": 134, ""sample_0_x"": 886, ""sample_1_y"": 586}",Q2 (90-180<U+00B0>),Q3 (180-270<U+00B0>),TRUE,FALSE,Frequency,225,6.732047300000005,6.732047300000005,83.2679527,83.2679527,FALSE
164800,19,righth,3+,yes,0,"""0-1""",69,135,135.2535195,2432,874,"{""sample_0_x"": 875, ""sample_2_time"": 401, ""first_x"": 875, ""sample_3_y"": 299, ""sample_4_x"": 673, ""sample_2_y"": 320, ""sample_4_time"": 874, ""first_time"": 9, ""last_x"": 673, ""sample_3_x"": 688, ""sample_1_time"": 191, ""last_time"": 874, ""sample_4_y"": 277, ""sample_0_time"": 9, ""sample_0_y"": 492, ""count"": 91, ""last_y"": 277, ""sample_2_x"": 706, ""sample_1_y"": 428, ""first_y"": 492, ""sample_3_time"": 608, ""sample_1_x"": 810}",Q2 (90-180<U+00B0>),Q2 (90-180<U+00B0>),TRUE,TRUE,Correct,135,0.2535195000000101,0.2535195000000101,0.2535195000000101,0.2535195000000101,TRUE
164800,19,righth,3+,yes,0,"""0-1""",70,135,136.8965183,2408,467,"{""first_time"": 8, ""sample_3_y"": 317, ""first_x"": 882, ""last_time"": 466, ""sample_3_time"": 357, ""sample_1_y"": 438, ""sample_4_x"": 666, ""count"": 53, ""first_y"": 484, ""sample_0_y"": 484, ""sample_2_x"": 747, ""sample_1_time"": 142, ""sample_2_y"": 369, ""sample_4_y"": 283, ""last_y"": 283, ""last_x"": 666, ""sample_1_x"": 829, ""sample_2_time"": 250, ""sample_4_time"": 466, ""sample_3_x"": 696, ""sample_0_time"": 8, ""sample_0_x"": 882}",Q2 (90-180<U+00B0>),Q2 (90-180<U+00B0>),TRUE,TRUE,Correct,135,1.8965182999999968,1.8965182999999968,1.8965182999999968,1.8965182999999968,TRUE
164800,19,righth,3+,yes,0,"""0-1""",71,45,46.27303002,2940,841,"{""first_time"": 9, ""last_x"": 1120, ""sample_0_x"": 916, ""count"": 96, ""sample_2_x"": 1064, ""sample_4_time"": 841, ""last_y"": 272, ""sample_3_x"": 1100, ""sample_1_time"": 209, ""sample_0_time"": 9, ""sample_4_y"": 272, ""sample_3_y"": 292, ""sample_2_time"": 425, ""sample_0_y"": 482, ""sample_3_time"": 625, ""sample_2_y"": 315, ""last_time"": 841, ""sample_1_y"": 415, ""first_x"": 916, ""first_y"": 482, ""sample_4_x"": 1120, ""sample_1_x"": 980}",Q1 (0-90<U+00B0>),Q1 (0-90<U+00B0>),TRUE,TRUE,Correct,45,1.2730300200000002,1.2730300200000002,1.2730300200000002,1.2730300200000002,TRUE
164800,19,righth,3+,yes,0,"""0-1""",72,135,136.5275254,2566,750,"{""sample_1_y"": 439, ""sample_2_x"": 773, ""count"": 75, ""last_x"": 669, ""first_x"": 891, ""sample_0_y"": 484, ""first_y"": 484, ""last_time"": 750, ""sample_0_time"": 8, ""sample_1_x"": 832, ""sample_4_time"": 750, ""sample_0_x"": 891, ""sample_2_time"": 342, ""sample_2_y"": 388, ""sample_4_y"": 283, ""sample_3_time"": 600, ""sample_3_y"": 291, ""sample_3_x"": 679, ""last_y"": 283, ""first_time"": 8, ""sample_1_time"": 158, ""sample_4_x"": 669}",Q2 (90-180<U+00B0>),Q2 (90-180<U+00B0>),TRUE,TRUE,Correct,135,1.5275254000000018,1.5275254000000018,1.5275254000000018,1.5275254000000018,TRUE
164800,19,righth,3+,yes,0,"""0-1""",73,225,225.3811193,2523,1709,"{""first_y"": 517, ""last_time"": 1708, ""sample_1_y"": 620, ""sample_0_x"": 880, ""sample_4_x"": 676, ""sample_1_x"": 769, ""sample_4_time"": 1708, ""last_y"": 729, ""first_time"": 8, ""sample_3_x"": 695, ""count"": 174, ""sample_4_y"": 729, ""sample_2_y"": 674, ""sample_2_time"": 750, ""sample_2_x"": 710, ""sample_3_time"": 1125, ""sample_1_time"": 383, ""sample_0_y"": 517, ""sample_3_y"": 694, ""first_x"": 880, ""last_x"": 676, ""sample_0_time"": 8}",Q3 (180-270<U+00B0>),Q3 (180-270<U+00B0>),TRUE,TRUE,Correct,225,0.3811192999999946,0.3811192999999946,0.3811192999999946,0.3811192999999946,TRUE
164800,19,righth,3+,yes,0,"""0-1""",74,45,133.9815157,2391,1446,"{""sample_0_time"": 8, ""sample_4_y"": 273, ""sample_4_x"": 679, ""sample_1_y"": 364, ""count"": 146, ""sample_2_y"": 296, ""sample_4_time"": 1446, ""sample_0_x"": 878, ""sample_0_y"": 490, ""sample_1_x"": 757, ""sample_3_y"": 288, ""first_y"": 490, ""first_x"": 878, ""sample_2_time"": 641, ""last_y"": 273, ""sample_1_time"": 332, ""sample_3_x"": 687, ""first_time"": 8, ""sample_3_time"": 1129, ""sample_2_x"": 696, ""last_x"": 679, ""last_time"": 1446}",Q1 (0-90<U+00B0>),Q2 (90-180<U+00B0>),FALSE,TRUE,Formant,135,1.0184843000000114,1.0184843000000114,88.98151569999999,88.98151569999999,FALSE
164800,19,righth,3+,yes,0,"""0-1""",75,315,304.6382561,2416,1058,"{""sample_2_y"": 713, ""sample_3_time"": 641, ""sample_0_y"": 524, ""sample_2_time"": 432, ""first_y"": 524, ""count"": 99, ""last_y"": 764, ""first_x"": 915, ""sample_1_time"": 225, ""last_x"": 1081, ""sample_2_x"": 1051, ""last_time"": 1058, ""first_time"": 8, ""sample_1_y"": 655, ""sample_4_y"": 764, ""sample_1_x"": 1002, ""sample_0_time"": 8, ""sample_4_x"": 1081, ""sample_3_y"": 749, ""sample_3_x"": 1075, ""sample_4_time"": 1058, ""sample_0_x"": 915}",Q4 (270-360<U+00B0>),Q4 (270-360<U+00B0>),TRUE,TRUE,Correct,315,10.361743900000022,10.361743900000022,10.361743900000022,10.361743900000022,TRUE
164800,19,righth,3+,yes,0,"""0-1""",76,315,305.934833,2496,2449,"{""last_x"": 1087, ""sample_1_y"": 685, ""sample_0_x"": 920, ""first_x"": 920, ""last_y"": 760, ""sample_2_time"": 682, ""sample_4_y"": 760, ""sample_3_x"": 1067, ""sample_4_x"": 1087, ""count"": 158, ""last_time"": 2449, ""sample_3_time"": 2076, ""sample_0_time"": 7, ""sample_3_y"": 750, ""sample_1_x"": 1031, ""sample_4_time"": 2449, ""sample_1_time"": 332, ""first_time"": 7, ""sample_2_x"": 1058, ""sample_2_y"": 737, ""first_y"": 516, ""sample_0_y"": 516}",Q4 (270-360<U+00B0>),Q4 (270-360<U+00B0>),TRUE,TRUE,Correct,315,9.065166999999974,9.065166999999974,9.065166999999974,9.065166999999974,TRUE
164800,19,righth,3+,yes,0,"""0-1""",77,45,36.43775665,4075,576,"{""last_y"": 313, ""sample_3_y"": 322, ""first_y"": 502, ""last_time"": 576, ""sample_3_x"": 1156, ""last_x"": 1156, ""sample_1_time"": 149, ""sample_2_y"": 352, ""first_time"": 7, ""sample_2_x"": 1125, ""first_x"": 927, ""sample_4_time"": 576, ""count"": 63, ""sample_4_y"": 313, ""sample_3_time"": 415, ""sample_0_x"": 927, ""sample_1_y"": 424, ""sample_1_x"": 1052, ""sample_4_x"": 1156, ""sample_0_time"": 7, ""sample_2_time"": 282, ""sample_0_y"": 502}",Q1 (0-90<U+00B0>),Q1 (0-90<U+00B0>),TRUE,TRUE,Correct,45,8.562243350000003,8.562243350000003,8.562243350000003,8.562243350000003,TRUE
164800,19,righth,3+,yes,0,"""0-1""",78,45,47.90656138,2384,537,"{""sample_2_y"": 393, ""last_time"": 537, ""sample_2_time"": 282, ""sample_0_y"": 481, ""last_y"": 264, ""sample_0_x"": 913, ""last_x"": 1115, ""sample_4_y"": 264, ""sample_3_y"": 319, ""sample_4_time"": 537, ""sample_1_time"": 132, ""sample_0_time"": 9, ""sample_2_x"": 1002, ""first_y"": 481, ""sample_1_y"": 445, ""sample_3_x"": 1072, ""first_x"": 913, ""sample_4_x"": 1115, ""sample_3_time"": 411, ""sample_1_x"": 949, ""count"": 62, ""first_time"": 9}",Q1 (0-90<U+00B0>),Q1 (0-90<U+00B0>),TRUE,TRUE,Correct,45,2.9065613799999994,2.9065613799999994,2.9065613799999994,2.9065613799999994,TRUE
164800,19,righth,3+,yes,0,"""0-1""",79,315,224.8729586,3302,1158,"{""sample_3_y"": 710, ""sample_0_x"": 879, ""sample_4_y"": 727, ""sample_4_x"": 674, ""sample_1_x"": 785, ""sample_1_time"": 300, ""sample_2_x"": 713, ""first_y"": 505, ""sample_0_y"": 505, ""sample_1_y"": 571, ""sample_2_y"": 685, ""last_time"": 1158, ""sample_0_time"": 8, ""sample_3_time"": 883, ""first_x"": 879, ""last_y"": 727, ""count"": 135, ""first_time"": 8, ""sample_4_time"": 1158, ""sample_2_time"": 583, ""last_x"": 674, ""sample_3_x"": 692}",Q4 (270-360<U+00B0>),Q3 (180-270<U+00B0>),FALSE,TRUE,Formant,225,0.12704139999999597,0.12704139999999597,90.1270414,90.1270414,FALSE
164800,19,righth,3+,yes,0,"""0-1""",80,315,225.2546462,2507,2120,"{""sample_1_x"": 726, ""last_x"": 676, ""sample_4_time"": 2120, ""first_x"": 882, ""first_time"": 8, ""sample_1_time"": 379, ""sample_0_y"": 518, ""last_y"": 728, ""sample_2_y"": 689, ""first_y"": 518, ""sample_4_x"": 676, ""sample_0_x"": 882, ""sample_4_y"": 728, ""sample_3_y"": 703, ""sample_3_x"": 686, ""last_time"": 2120, ""sample_1_y"": 631, ""sample_2_time"": 762, ""sample_2_x"": 691, ""count"": 173, ""sample_0_time"": 8, ""sample_3_time"": 1690}",Q4 (270-360<U+00B0>),Q3 (180-270<U+00B0>),FALSE,TRUE,Formant,225,0.25464619999999627,0.25464619999999627,89.7453538,89.7453538,FALSE
164800,19,righth,3+,yes,0,"""0-1""",81,225,220.5427499,2357,813,"{""sample_2_y"": 646, ""sample_0_time"": 8, ""first_y"": 519, ""first_x"": 867, ""sample_3_time"": 621, ""sample_0_y"": 519, ""sample_1_time"": 196, ""count"": 95, ""sample_4_time"": 813, ""sample_4_x"": 658, ""sample_3_y"": 697, ""sample_3_x"": 666, ""sample_2_time"": 420, ""last_y"": 709, ""sample_4_y"": 709, ""first_time"": 8, ""sample_0_x"": 867, ""sample_1_y"": 579, ""last_time"": 813, ""sample_2_x"": 700, ""sample_1_x"": 748, ""last_x"": 658}",Q3 (180-270<U+00B0>),Q3 (180-270<U+00B0>),TRUE,TRUE,Correct,225,4.45725010000001,4.45725010000001,4.45725010000001,4.45725010000001,TRUE
164800,19,righth,3+,yes,0,"""0-1""",82,225,218.6317359,2355,797,"{""sample_2_y"": 606, ""sample_3_y"": 673, ""sample_1_x"": 795, ""sample_3_time"": 605, ""count"": 93, ""sample_3_x"": 673, ""sample_2_time"": 397, ""last_x"": 651, ""sample_4_x"": 651, ""sample_1_y"": 558, ""last_time"": 797, ""sample_4_y"": 701, ""first_y"": 513, ""first_x"": 883, ""sample_0_time"": 12, ""first_time"": 12, ""sample_2_x"": 722, ""sample_0_y"": 513, ""sample_0_x"": 883, ""sample_1_time"": 205, ""sample_4_time"": 797, ""last_y"": 701}",Q3 (180-270<U+00B0>),Q3 (180-270<U+00B0>),TRUE,TRUE,Correct,225,6.368264100000005,6.368264100000005,6.368264100000005,6.368264100000005,TRUE
164800,19,righth,3+,yes,0,"""0-1""",83,135,224.7453538,2477,2425,"{""sample_0_time"": 9, ""sample_0_x"": 884, ""sample_1_time"": 509, ""sample_0_y"": 520, ""sample_4_y"": 726, ""sample_2_y"": 667, ""sample_3_time"": 1937, ""sample_1_y"": 621, ""last_time"": 2425, ""sample_2_x"": 709, ""first_y"": 520, ""count"": 228, ""last_x"": 674, ""sample_4_x"": 674, ""last_y"": 726, ""sample_3_x"": 695, ""sample_2_time"": 1019, ""sample_1_x"": 746, ""sample_4_time"": 2425, ""first_x"": 884, ""sample_3_y"": 693, ""first_time"": 9}",Q2 (90-180<U+00B0>),Q3 (180-270<U+00B0>),TRUE,FALSE,Frequency,225,0.25464619999999627,0.25464619999999627,89.7453538,89.7453538,FALSE
164800,19,righth,3+,yes,0,"""0-1""",84,45,311.8131024,2632,1975,"{""sample_3_x"": 1067, ""sample_2_y"": 750, ""sample_3_y"": 730, ""sample_2_time"": 854, ""first_y"": 529, ""sample_1_time"": 429, ""sample_2_x"": 1074, ""sample_4_x"": 1112, ""first_time"": 8, ""sample_4_time"": 1975, ""first_x"": 914, ""sample_0_x"": 914, ""sample_3_time"": 1504, ""last_x"": 1112, ""last_time"": 1975, ""sample_4_y"": 739, ""sample_0_y"": 529, ""sample_0_time"": 8, ""sample_1_y"": 706, ""last_y"": 739, ""count"": 195, ""sample_1_x"": 1050}",Q1 (0-90<U+00B0>),Q4 (270-360<U+00B0>),TRUE,FALSE,Frequency,315,3.186897600000009,3.186897600000009,266.8131024,93.18689760000001,FALSE
164800,19,righth,3+,yes,0,"""0-1""",85,135,215.9747239,2706,434,"{""first_time"": 45, ""sample_0_y"": 541, ""sample_3_x"": 653, ""sample_3_y"": 670, ""sample_3_time"": 342, ""last_y"": 690, ""sample_2_time"": 242, ""sample_1_y"": 600, ""count"": 48, ""sample_2_x"": 678, ""last_time"": 434, ""sample_4_y"": 690, ""sample_4_x"": 641, ""sample_0_x"": 846, ""sample_0_time"": 45, ""first_y"": 541, ""sample_1_time"": 142, ""last_x"": 641, ""sample_2_y"": 649, ""sample_1_x"": 740, ""sample_4_time"": 434, ""first_x"": 846}",Q2 (90-180<U+00B0>),Q3 (180-270<U+00B0>),TRUE,FALSE,Frequency,225,9.025276100000013,9.025276100000013,80.97472389999999,80.97472389999999,FALSE
164800,19,righth,3+,yes,0,"""0-1""",86,45,136.27303,1873,1298,"{""first_y"": 498, ""sample_3_time"": 983, ""sample_0_time"": 8, ""sample_3_y"": 315, ""sample_4_x"": 670, ""sample_1_y"": 456, ""sample_0_y"": 498, ""count"": 120, ""last_x"": 670, ""sample_2_y"": 376, ""sample_1_time"": 466, ""sample_4_y"": 282, ""sample_1_x"": 831, ""first_time"": 8, ""sample_3_x"": 690, ""sample_2_time"": 733, ""sample_0_x"": 881, ""first_x"": 881, ""last_time"": 1298, ""sample_2_x"": 735, ""last_y"": 282, ""sample_4_time"": 1298}",Q1 (0-90<U+00B0>),Q2 (90-180<U+00B0>),FALSE,TRUE,Formant,135,1.2730300000000057,1.2730300000000057,91.27303,91.27303,FALSE
164800,19,righth,3+,yes,0,"""0-1""",87,135,219.3907256,2716,503,"{""sample_3_x"": 672, ""last_time"": 503, ""count"": 59, ""sample_3_time"": 386, ""sample_1_x"": 772, ""sample_2_time"": 265, ""first_time"": 10, ""sample_0_time"": 10, ""sample_1_time"": 123, ""sample_3_y"": 678, ""sample_4_x"": 654, ""sample_2_y"": 648, ""sample_2_x"": 690, ""sample_0_x"": 883, ""last_y"": 704, ""sample_4_y"": 704, ""first_y"": 492, ""sample_1_y"": 576, ""last_x"": 654, ""sample_4_time"": 503, ""sample_0_y"": 492, ""first_x"": 883}",Q2 (90-180<U+00B0>),Q3 (180-270<U+00B0>),TRUE,FALSE,Frequency,225,5.609274400000004,5.609274400000004,84.3907256,84.3907256,FALSE
164800,19,righth,3+,yes,0,"""0-1""",88,225,222.9636745,2408,525,"{""sample_2_y"": 615, ""count"": 61, ""first_time"": 9, ""first_x"": 874, ""sample_2_x"": 747, ""last_y"": 719, ""sample_3_time"": 400, ""first_y"": 511, ""sample_3_x"": 696, ""sample_1_time"": 133, ""sample_0_time"": 9, ""last_x"": 667, ""sample_2_time"": 277, ""sample_0_x"": 874, ""sample_3_y"": 668, ""last_time"": 525, ""sample_1_y"": 558, ""sample_0_y"": 511, ""sample_1_x"": 812, ""sample_4_x"": 667, ""sample_4_y"": 719, ""sample_4_time"": 525}",Q3 (180-270<U+00B0>),Q3 (180-270<U+00B0>),TRUE,TRUE,Correct,225,2.036325500000004,2.036325500000004,2.036325500000004,2.036325500000004,TRUE
164800,19,righth,3+,yes,0,"""0-1""",89,225,221.8550425,2419,367,"{""sample_3_x"": 723, ""sample_2_x"": 779, ""sample_2_y"": 585, ""last_time"": 367, ""sample_3_time"": 283, ""sample_1_time"": 100, ""sample_2_time"": 192, ""sample_0_x"": 878, ""last_x"": 660, ""sample_4_y"": 717, ""last_y"": 717, ""sample_1_x"": 835, ""sample_3_y"": 648, ""count"": 44, ""sample_0_time"": 8, ""sample_1_y"": 542, ""sample_0_y"": 507, ""sample_4_time"": 367, ""sample_4_x"": 660, ""first_x"": 878, ""first_time"": 8, ""first_y"": 507}",Q3 (180-270<U+00B0>),Q3 (180-270<U+00B0>),TRUE,TRUE,Correct,225,3.144957500000004,3.144957500000004,3.144957500000004,3.144957500000004,TRUE
164800,19,righth,3+,yes,0,"""0-1""",90,315,217.4809336,574,3579,"{""sample_4_time"": 3578, ""count"": 244, ""last_time"": 3578, ""first_y"": 522, ""last_x"": 647, ""sample_2_time"": 2222, ""sample_0_x"": 875, ""first_x"": 875, ""sample_0_time"": 8, ""sample_0_y"": 522, ""last_y"": 696, ""sample_4_y"": 696, ""sample_2_y"": 614, ""sample_1_x"": 734, ""sample_3_time"": 3062, ""sample_2_x"": 779, ""sample_1_time"": 1543, ""sample_4_x"": 647, ""first_time"": 8, ""sample_1_y"": 652, ""sample_3_x"": 900, ""sample_3_y"": 505}",Q4 (270-360<U+00B0>),Q3 (180-270<U+00B0>),FALSE,TRUE,Formant,225,7.519066400000014,7.519066400000014,97.51906640000001,97.51906640000001,FALSE
164800,19,righth,3+,yes,0,"""0-1""",91,315,230.8975485,2384,453,"{""sample_4_time"": 453, ""sample_0_x"": 877, ""count"": 52, ""last_y"": 753, ""sample_1_y"": 606, ""sample_3_x"": 765, ""sample_1_time"": 116, ""sample_0_time"": 8, ""sample_1_x"": 835, ""last_x"": 696, ""sample_2_x"": 809, ""first_time"": 8, ""sample_0_y"": 527, ""last_time"": 453, ""sample_3_y"": 686, ""first_x"": 877, ""sample_2_y"": 639, ""sample_4_y"": 753, ""sample_3_time"": 333, ""sample_2_time"": 225, ""first_y"": 527, ""sample_4_x"": 696}",Q4 (270-360<U+00B0>),Q3 (180-270<U+00B0>),FALSE,TRUE,Formant,225,5.897548499999999,5.897548499999999,84.1024515,84.1024515,FALSE
164800,19,righth,3+,yes,0,"""0-1""",92,45,47.14916422,5416,262,"{""sample_3_y"": 290, ""sample_3_time"": 203, ""sample_0_y"": 471, ""sample_1_y"": 398, ""sample_4_time"": 262, ""last_x"": 1118, ""sample_1_x"": 1000, ""sample_1_time"": 78, ""sample_4_y"": 267, ""sample_0_x"": 922, ""sample_4_x"": 1118, ""sample_2_y"": 332, ""count"": 30, ""first_time"": 24, ""first_x"": 922, ""first_y"": 471, ""sample_2_time"": 144, ""sample_0_time"": 24, ""sample_3_x"": 1104, ""last_time"": 262, ""last_y"": 267, ""sample_2_x"": 1073}",Q1 (0-90<U+00B0>),Q1 (0-90<U+00B0>),TRUE,TRUE,Correct,45,2.149164220000003,2.149164220000003,2.149164220000003,2.149164220000003,TRUE
164800,19,righth,3+,yes,0,"""0-1""",93,315,311.9471175,2611,568,"{""last_y"": 739, ""sample_1_y"": 626, ""sample_2_y"": 712, ""sample_4_y"": 739, ""first_y"": 526, ""sample_2_time"": 288, ""sample_3_x"": 1098, ""sample_0_time"": 8, ""sample_4_time"": 568, ""sample_1_time"": 148, ""sample_2_x"": 1072, ""sample_3_time"": 446, ""first_x"": 918, ""sample_0_x"": 918, ""last_time"": 568, ""first_time"": 8, ""last_x"": 1113, ""sample_3_y"": 730, ""sample_0_y"": 526, ""count"": 64, ""sample_1_x"": 1012, ""sample_4_x"": 1113}",Q4 (270-360<U+00B0>),Q4 (270-360<U+00B0>),TRUE,TRUE,Correct,315,3.0528825000000097,3.0528825000000097,3.0528825000000097,3.0528825000000097,TRUE
164800,19,righth,3+,yes,0,"""0-1""",94,45,50.83662852,2382,1635,"{""sample_0_x"": 910, ""first_y"": 479, ""sample_3_x"": 1085, ""count"": 97, ""sample_1_time"": 202, ""sample_0_time"": 9, ""first_time"": 9, ""sample_1_y"": 398, ""sample_1_x"": 965, ""sample_2_y"": 278, ""sample_2_time"": 402, ""sample_4_x"": 1102, ""sample_4_time"": 1634, ""last_x"": 1102, ""sample_0_y"": 479, ""first_x"": 910, ""sample_3_time"": 619, ""sample_3_y"": 268, ""last_time"": 1634, ""sample_2_x"": 1054, ""sample_4_y"": 254, ""last_y"": 254}",Q1 (0-90<U+00B0>),Q1 (0-90<U+00B0>),TRUE,TRUE,Correct,45,5.836628519999998,5.836628519999998,5.836628519999998,5.836628519999998,TRUE
164800,19,righth,3+,yes,0,"""0-1""",95,315,319.418049,2216,578,"{""sample_1_y"": 561, ""count"": 63, ""first_time"": 32, ""last_time"": 578, ""sample_0_time"": 32, ""sample_2_time"": 288, ""sample_3_y"": 668, ""sample_3_x"": 1086, ""first_y"": 533, ""sample_0_x"": 926, ""sample_3_time"": 421, ""last_y"": 711, ""sample_4_time"": 578, ""first_x"": 926, ""sample_2_y"": 615, ""sample_1_x"": 965, ""last_x"": 1144, ""sample_2_x"": 1027, ""sample_4_y"": 711, ""sample_0_y"": 533, ""sample_4_x"": 1144, ""sample_1_time"": 155}",Q4 (270-360<U+00B0>),Q4 (270-360<U+00B0>),TRUE,TRUE,Correct,315,4.418048999999996,4.418048999999996,4.418048999999996,4.418048999999996,TRUE
164800,19,righth,3+,yes,0,"""0-1""",96,45,51.76189006,2279,666,"{""sample_2_x"": 1023, ""sample_3_time"": 508, ""sample_2_y"": 356, ""sample_4_x"": 1097, ""sample_0_y"": 486, ""sample_3_y"": 296, ""sample_2_time"": 332, ""sample_1_x"": 997, ""sample_4_y"": 252, ""sample_0_time"": 7, ""first_x"": 889, ""sample_0_x"": 889, ""sample_1_y"": 408, ""last_y"": 252, ""last_time"": 665, ""first_time"": 7, ""sample_3_x"": 1060, ""last_x"": 1097, ""sample_4_time"": 665, ""count"": 78, ""sample_1_time"": 166, ""first_y"": 486}",Q1 (0-90<U+00B0>),Q1 (0-90<U+00B0>),TRUE,TRUE,Correct,45,6.761890059999999,6.761890059999999,6.761890059999999,6.761890059999999,TRUE
164800,19,righth,3+,yes,0,"""0-1""",97,315,314.8729586,2326,683,"{""first_time"": 5, ""first_x"": 927, ""sample_4_time"": 683, ""count"": 81, ""sample_1_time"": 167, ""sample_2_time"": 333, ""sample_0_y"": 519, ""sample_0_x"": 927, ""sample_1_x"": 1028, ""sample_3_time"": 501, ""last_y"": 728, ""sample_4_y"": 728, ""last_time"": 683, ""sample_1_y"": 620, ""sample_2_y"": 658, ""first_y"": 519, ""sample_3_x"": 1089, ""last_x"": 1125, ""sample_4_x"": 1125, ""sample_2_x"": 1068, ""sample_3_y"": 677, ""sample_0_time"": 5}",Q4 (270-360<U+00B0>),Q4 (270-360<U+00B0>),TRUE,TRUE,Correct,315,0.12704139999999597,0.12704139999999597,0.12704139999999597,0.12704139999999597,TRUE
164800,19,righth,3+,yes,0,"""0-1""",98,135,130.9504183,3562,257,"{""last_time"": 257, ""sample_1_x"": 839, ""sample_2_y"": 359, ""sample_2_x"": 767, ""last_x"": 690, ""sample_0_time"": 7, ""sample_3_y"": 287, ""sample_1_y"": 442, ""sample_0_y"": 487, ""sample_4_y"": 260, ""sample_3_x"": 716, ""sample_4_time"": 257, ""first_y"": 487, ""sample_1_time"": 65, ""first_time"": 7, ""last_y"": 260, ""sample_3_time"": 199, ""sample_2_time"": 132, ""sample_0_x"": 880, ""count"": 31, ""sample_4_x"": 690, ""first_x"": 880}",Q2 (90-180<U+00B0>),Q2 (90-180<U+00B0>),TRUE,TRUE,Correct,135,4.0495817000000045,4.0495817000000045,4.0495817000000045,4.0495817000000045,TRUE
164800,19,righth,3+,yes,0,"""0-1""",99,315,222.2011015,4124,946,"{""first_x"": 869, ""sample_1_time"": 254, ""sample_3_x"": 692, ""sample_2_time"": 480, ""last_y"": 716, ""first_y"": 511, ""sample_1_x"": 805, ""sample_0_y"": 511, ""sample_2_x"": 742, ""sample_3_y"": 686, ""sample_1_y"": 598, ""sample_4_time"": 946, ""sample_4_y"": 716, ""sample_0_time"": 34, ""last_time"": 946, ""count"": 109, ""first_time"": 34, ""last_x"": 664, ""sample_4_x"": 664, ""sample_2_y"": 645, ""sample_0_x"": 869, ""sample_3_time"": 721}",Q4 (270-360<U+00B0>),Q3 (180-270<U+00B0>),FALSE,TRUE,Formant,225,2.798898500000007,2.798898500000007,92.7988985,92.7988985,FALSE
164800,19,righth,3+,yes,0,"""0-1""",100,225,223.72697,2348,609,"{""count"": 70, ""sample_0_x"": 882, ""sample_2_time"": 325, ""sample_4_time"": 608, ""sample_4_x"": 670, ""sample_3_x"": 707, ""first_time"": 8, ""sample_3_time"": 467, ""first_x"": 882, ""sample_1_x"": 794, ""sample_2_x"": 738, ""sample_3_y"": 694, ""last_time"": 608, ""first_y"": 522, ""sample_1_y"": 628, ""sample_2_y"": 672, ""sample_0_time"": 8, ""last_x"": 670, ""sample_0_y"": 522, ""sample_4_y"": 722, ""last_y"": 722, ""sample_1_time"": 175}",Q3 (180-270<U+00B0>),Q3 (180-270<U+00B0>),TRUE,TRUE,Correct,225,1.2730300000000057,1.2730300000000057,1.2730300000000057,1.2730300000000057,TRUE
164887,20,righth,1,yes,5,"""5-10""",21,225,221.6335393,2819,1617,"{""first_y"": 265, ""first_x"": 551, ""sample_1_y"": 270, ""sample_0_y"": 265, ""sample_2_x"": 468, ""sample_0_time"": 16, ""sample_4_x"": 438, ""sample_3_x"": 447, ""last_time"": 1617, ""sample_3_y"": 346, ""first_time"": 16, ""sample_2_y"": 309, ""sample_1_x"": 504, ""last_y"": 378, ""last_x"": 438, ""sample_1_time"": 352, ""sample_4_y"": 378, ""sample_3_time"": 1300, ""count"": 80, ""sample_0_x"": 551, ""sample_2_time"": 967, ""sample_4_time"": 1617}",Q3 (180-270<U+00B0>),Q3 (180-270<U+00B0>),TRUE,TRUE,Correct,225,3.3664607000000046,3.3664607000000046,3.3664607000000046,3.3664607000000046,TRUE
164887,20,righth,1,yes,5,"""5-10""",22,45,46.90915243,1877,1399,"{""first_time"": 16, ""sample_2_y"": 194, ""count"": 82, ""first_y"": 257, ""sample_0_y"": 257, ""last_x"": 680, ""sample_4_time"": 1399, ""sample_0_x"": 575, ""sample_1_time"": 349, ""sample_2_time"": 700, ""sample_0_time"": 16, ""sample_1_y"": 221, ""last_time"": 1399, ""last_y"": 142, ""sample_4_y"": 142, ""sample_3_y"": 170, ""sample_1_x"": 605, ""sample_2_x"": 633, ""sample_3_time"": 1033, ""first_x"": 575, ""sample_3_x"": 657, ""sample_4_x"": 680}",Q1 (0-90<U+00B0>),Q1 (0-90<U+00B0>),TRUE,TRUE,Correct,45,1.909152429999999,1.909152429999999,1.909152429999999,1.909152429999999,TRUE
164887,20,righth,1,yes,5,"""5-10""",23,315,317.6351846,3733,1134,"{""first_y"": 275, ""last_y"": 380, ""sample_4_y"": 380, ""count"": 68, ""sample_2_time"": 583, ""sample_4_time"": 1133, ""sample_0_x"": 573, ""sample_3_time"": 867, ""sample_1_x"": 596, ""sample_4_x"": 689, ""sample_0_time"": 17, ""sample_3_x"": 659, ""last_time"": 1133, ""first_time"": 17, ""sample_2_x"": 624, ""sample_2_y"": 308, ""first_x"": 573, ""last_x"": 689, ""sample_1_time"": 299, ""sample_3_y"": 340, ""sample_1_y"": 289, ""sample_0_y"": 275}",Q4 (270-360<U+00B0>),Q4 (270-360<U+00B0>),TRUE,TRUE,Correct,315,2.6351846000000023,2.6351846000000023,2.6351846000000023,2.6351846000000023,TRUE
164887,20,righth,1,yes,5,"""5-10""",24,225,229.5077708,2067,700,"{""last_x"": 453, ""sample_1_y"": 308, ""sample_1_time"": 183, ""sample_0_y"": 274, ""sample_1_x"": 514, ""sample_2_time"": 366, ""sample_4_y"": 396, ""first_y"": 274, ""sample_4_x"": 453, ""count"": 42, ""first_x"": 551, ""sample_0_time"": 17, ""sample_2_y"": 334, ""first_time"": 17, ""sample_3_time"": 533, ""sample_4_time"": 700, ""sample_3_x"": 468, ""sample_3_y"": 370, ""last_y"": 396, ""sample_2_x"": 494, ""sample_0_x"": 551, ""last_time"": 700}",Q3 (180-270<U+00B0>),Q3 (180-270<U+00B0>),TRUE,TRUE,Correct,225,4.507770800000003,4.507770800000003,4.507770800000003,4.507770800000003,TRUE
164887,20,righth,1,yes,5,"""5-10""",25,45,44.52254622,2133,500,"{""sample_1_time"": 133, ""sample_0_x"": 583, ""first_x"": 583, ""sample_4_time"": 500, ""count"": 30, ""last_y"": 147, ""sample_3_y"": 154, ""sample_3_time"": 383, ""sample_1_y"": 206, ""sample_0_y"": 250, ""sample_2_time"": 266, ""sample_0_time"": 17, ""sample_3_x"": 674, ""last_time"": 500, ""first_time"": 17, ""sample_4_y"": 147, ""sample_1_x"": 625, ""sample_2_x"": 655, ""sample_2_y"": 172, ""last_x"": 685, ""first_y"": 250, ""sample_4_x"": 685}",Q1 (0-90<U+00B0>),Q1 (0-90<U+00B0>),TRUE,TRUE,Correct,45,0.4774537799999976,0.4774537799999976,0.4774537799999976,0.4774537799999976,TRUE
164887,20,righth,1,yes,5,"""5-10""",26,135,136.8933858,1983,350,"{""sample_3_y"": 166, ""sample_0_x"": 540, ""sample_4_time"": 350, ""sample_1_x"": 499, ""sample_2_x"": 472, ""sample_0_y"": 245, ""last_y"": 149, ""sample_4_y"": 149, ""last_time"": 350, ""sample_2_y"": 182, ""count"": 21, ""first_time"": 17, ""sample_4_x"": 439, ""sample_2_time"": 183, ""sample_1_y"": 210, ""sample_3_time"": 267, ""first_y"": 245, ""sample_0_time"": 17, ""first_x"": 540, ""sample_3_x"": 449, ""sample_1_time"": 101, ""last_x"": 439}",Q2 (90-180<U+00B0>),Q2 (90-180<U+00B0>),TRUE,TRUE,Correct,135,1.8933858000000043,1.8933858000000043,1.8933858000000043,1.8933858000000043,TRUE
164887,20,righth,1,yes,5,"""5-10""",27,135,138.0876513,2421,629,"{""first_y"": 257, ""sample_2_y"": 170, ""sample_3_x"": 455, ""first_time"": 12, ""sample_1_y"": 212, ""sample_3_y"": 161, ""last_time"": 629, ""sample_4_y"": 152, ""count"": 17, ""sample_4_time"": 629, ""sample_2_time"": 145, ""sample_4_x"": 437, ""sample_1_time"": 79, ""sample_3_time"": 562, ""sample_2_x"": 472, ""sample_0_time"": 12, ""sample_1_x"": 503, ""sample_0_y"": 257, ""last_y"": 152, ""first_x"": 552, ""last_x"": 437, ""sample_0_x"": 552}",Q2 (90-180<U+00B0>),Q2 (90-180<U+00B0>),TRUE,TRUE,Correct,135,3.0876513000000045,3.0876513000000045,3.0876513000000045,3.0876513000000045,TRUE
164887,20,righth,1,yes,5,"""5-10""",28,315,312.8962031,1450,451,"{""sample_4_time"": 451, ""last_y"": 393, ""first_x"": 581, ""count"": 27, ""sample_3_y"": 367, ""sample_0_time"": 17, ""sample_3_time"": 351, ""sample_2_time"": 234, ""sample_2_x"": 646, ""sample_0_y"": 278, ""sample_4_y"": 393, ""first_y"": 278, ""sample_4_x"": 682, ""sample_1_time"": 117, ""last_x"": 682, ""first_time"": 17, ""sample_2_y"": 341, ""sample_0_x"": 581, ""sample_3_x"": 671, ""last_time"": 451, ""sample_1_x"": 607, ""sample_1_y"": 308}",Q4 (270-360<U+00B0>),Q4 (270-360<U+00B0>),TRUE,TRUE,Correct,315,2.1037969000000203,2.1037969000000203,2.1037969000000203,2.1037969000000203,TRUE
164887,20,righth,1,yes,5,"""5-10""",29,45,135.2397299,1667,366,"{""sample_2_time"": 200, ""first_time"": 16, ""sample_0_y"": 244, ""sample_1_time"": 99, ""sample_3_x"": 458, ""sample_4_x"": 444, ""sample_4_y"": 147, ""sample_0_time"": 16, ""sample_1_x"": 504, ""last_x"": 444, ""sample_0_x"": 545, ""sample_2_x"": 476, ""last_time"": 366, ""last_y"": 147, ""sample_2_y"": 183, ""first_x"": 545, ""sample_4_time"": 366, ""sample_3_y"": 163, ""first_y"": 244, ""sample_1_y"": 208, ""sample_3_time"": 283, ""count"": 22}",Q1 (0-90<U+00B0>),Q2 (90-180<U+00B0>),FALSE,TRUE,Formant,135,0.23972989999998617,0.23972989999998617,90.23972989999999,90.23972989999999,FALSE
164887,20,righth,1,yes,5,"""5-10""",30,315,310.2363583,1550,217,"{""first_x"": 589, ""count"": 9, ""last_y"": 396, ""first_time"": 83, ""first_y"": 287, ""last_x"": 674, ""last_time"": 217}",Q4 (270-360<U+00B0>),Q4 (270-360<U+00B0>),TRUE,TRUE,Correct,315,4.763641699999994,4.763641699999994,4.763641699999994,4.763641699999994,TRUE
164887,20,righth,1,yes,5,"""5-10""",31,135,135,1267,216,"{""sample_0_time"": 16, ""last_x"": 444, ""sample_2_y"": 177, ""sample_1_x"": 496, ""first_time"": 16, ""last_time"": 216, ""last_y"": 146, ""sample_0_x"": 538, ""sample_4_y"": 146, ""count"": 13, ""sample_1_y"": 204, ""sample_0_y"": 249, ""sample_2_time"": 116, ""sample_3_y"": 155, ""first_y"": 249, ""sample_4_time"": 216, ""sample_3_x"": 454, ""sample_4_x"": 444, ""sample_3_time"": 167, ""sample_1_time"": 66, ""sample_2_x"": 469, ""first_x"": 538}",Q2 (90-180<U+00B0>),Q2 (90-180<U+00B0>),TRUE,TRUE,Correct,135,0,0,0,0,TRUE
164887,20,righth,1,yes,5,"""5-10""",32,225,311.9123487,999,251,"{""sample_2_time"": 134, ""first_y"": 278, ""sample_3_y"": 376, ""sample_0_y"": 278, ""sample_1_y"": 304, ""count"": 15, ""sample_2_x"": 633, ""sample_4_time"": 251, ""sample_1_time"": 68, ""sample_2_y"": 345, ""last_y"": 393, ""last_x"": 678, ""sample_4_x"": 678, ""sample_3_time"": 201, ""sample_4_y"": 393, ""first_time"": 17, ""first_x"": 581, ""sample_3_x"": 655, ""sample_1_x"": 607, ""sample_0_x"": 581, ""last_time"": 251, ""sample_0_time"": 17}",Q3 (180-270<U+00B0>),Q4 (270-360<U+00B0>),FALSE,TRUE,Formant,315,3.0876513000000045,3.0876513000000045,86.9123487,86.9123487,FALSE
164887,20,righth,1,yes,5,"""5-10""",33,45,50.28124063,2866,334,"{""first_x"": 585, ""sample_4_time"": 334, ""last_time"": 334, ""sample_2_y"": 168, ""sample_2_x"": 640, ""sample_1_time"": 100, ""count"": 20, ""last_x"": 672, ""sample_4_y"": 136, ""sample_1_x"": 615, ""sample_0_y"": 247, ""first_time"": 17, ""sample_0_x"": 585, ""last_y"": 136, ""sample_1_y"": 205, ""sample_0_time"": 17, ""sample_3_time"": 267, ""first_y"": 247, ""sample_3_x"": 661, ""sample_4_x"": 672, ""sample_2_time"": 183, ""sample_3_y"": 146}",Q1 (0-90<U+00B0>),Q1 (0-90<U+00B0>),TRUE,TRUE,Correct,45,5.281240629999999,5.281240629999999,5.281240629999999,5.281240629999999,TRUE
164887,20,righth,1,yes,5,"""5-10""",34,45,57.06130946,3033,1684,"{""sample_1_time"": 400, ""last_time"": 1684, ""sample_0_time"": 17, ""sample_2_y"": 205, ""count"": 93, ""sample_1_y"": 236, ""sample_2_x"": 616, ""sample_0_x"": 570, ""first_y"": 254, ""last_x"": 656, ""sample_2_time"": 783, ""sample_3_x"": 648, ""sample_1_x"": 587, ""sample_4_y"": 124, ""first_time"": 17, ""sample_4_x"": 656, ""sample_3_y"": 161, ""first_x"": 570, ""sample_0_y"": 254, ""sample_3_time"": 1267, ""sample_4_time"": 1684, ""last_y"": 124}",Q1 (0-90<U+00B0>),Q1 (0-90<U+00B0>),TRUE,TRUE,Correct,45,12.061309459999997,12.061309459999997,12.061309459999997,12.061309459999997,TRUE
164887,20,righth,1,yes,5,"""5-10""",35,225,228.8460301,3399,1768,"{""sample_2_y"": 328, ""sample_4_time"": 1768, ""sample_0_y"": 277, ""sample_2_time"": 1059, ""sample_4_x"": 453, ""last_x"": 453, ""sample_0_x"": 555, ""sample_3_time"": 1417, ""first_time"": 18, ""sample_3_x"": 477, ""sample_3_y"": 361, ""sample_1_y"": 303, ""sample_1_time"": 518, ""last_time"": 1768, ""first_x"": 555, ""sample_2_x"": 505, ""last_y"": 393, ""count"": 87, ""sample_4_y"": 393, ""first_y"": 277, ""sample_0_time"": 18, ""sample_1_x"": 531}",Q3 (180-270<U+00B0>),Q3 (180-270<U+00B0>),TRUE,TRUE,Correct,225,3.8460301000000072,3.8460301000000072,3.8460301000000072,3.8460301000000072,TRUE
164887,20,righth,1,yes,5,"""5-10""",36,135,137.1386826,2384,1950,"{""count"": 64, ""last_time"": 1950, ""sample_4_y"": 150, ""sample_2_time"": 650, ""sample_1_y"": 242, ""sample_1_time"": 388, ""first_time"": 17, ""sample_1_x"": 527, ""sample_3_x"": 460, ""sample_3_y"": 192, ""sample_4_time"": 1950, ""sample_0_time"": 17, ""sample_0_x"": 550, ""first_y"": 256, ""sample_2_x"": 487, ""sample_4_x"": 439, ""sample_3_time"": 1716, ""last_x"": 439, ""first_x"": 550, ""sample_0_y"": 256, ""sample_2_y"": 222, ""last_y"": 150}",Q2 (90-180<U+00B0>),Q2 (90-180<U+00B0>),TRUE,TRUE,Correct,135,2.13868260000001,2.13868260000001,2.13868260000001,2.13868260000001,TRUE
164887,20,righth,1,yes,5,"""5-10""",37,315,314.0451587,2250,1433,"{""sample_4_x"": 682, ""sample_0_y"": 274, ""sample_1_x"": 602, ""sample_3_x"": 655, ""sample_4_time"": 1433, ""sample_3_y"": 362, ""sample_4_y"": 388, ""sample_0_x"": 577, ""sample_2_x"": 628, ""first_x"": 577, ""last_time"": 1433, ""last_y"": 388, ""sample_0_time"": 16, ""count"": 84, ""last_x"": 682, ""first_time"": 16, ""sample_3_time"": 1099, ""sample_1_y"": 294, ""sample_1_time"": 399, ""sample_2_time"": 749, ""sample_2_y"": 321, ""first_y"": 274}",Q4 (270-360<U+00B0>),Q4 (270-360<U+00B0>),TRUE,TRUE,Correct,315,0.9548412999999982,0.9548412999999982,0.9548412999999982,0.9548412999999982,TRUE
164887,20,righth,1,yes,5,"""5-10""",38,45,46.663725,2300,1283,"{""sample_3_y"": 170, ""sample_0_y"": 255, ""sample_3_x"": 653, ""sample_4_y"": 142, ""count"": 77, ""sample_1_x"": 607, ""sample_2_time"": 650, ""sample_0_time"": 16, ""sample_4_x"": 681, ""sample_1_time"": 333, ""sample_2_x"": 634, ""sample_3_time"": 967, ""last_x"": 681, ""first_time"": 16, ""first_x"": 571, ""sample_4_time"": 1283, ""sample_0_x"": 571, ""last_time"": 1283, ""first_y"": 255, ""last_y"": 142, ""sample_2_y"": 199, ""sample_1_y"": 226}",Q1 (0-90<U+00B0>),Q1 (0-90<U+00B0>),TRUE,TRUE,Correct,45,1.6637249999999995,1.6637249999999995,1.6637249999999995,1.6637249999999995,TRUE
164887,20,righth,1,yes,5,"""5-10""",39,135,138.8140748,2100,1051,"{""sample_2_y"": 220, ""sample_1_x"": 509, ""first_y"": 267, ""count"": 63, ""last_time"": 1050, ""sample_1_y"": 246, ""sample_4_time"": 1050, ""sample_2_x"": 486, ""sample_4_y"": 154, ""sample_3_x"": 456, ""sample_0_time"": 17, ""sample_0_x"": 551, ""sample_1_time"": 267, ""last_y"": 154, ""sample_4_x"": 436, ""sample_0_y"": 267, ""first_x"": 551, ""sample_3_time"": 800, ""sample_2_time"": 534, ""first_time"": 17, ""sample_3_y"": 184, ""last_x"": 436}",Q2 (90-180<U+00B0>),Q2 (90-180<U+00B0>),TRUE,TRUE,Correct,135,3.814074799999986,3.814074799999986,3.814074799999986,3.814074799999986,TRUE
164887,20,righth,1,yes,5,"""5-10""",40,315,223.5679038,1984,1399,"{""sample_4_time"": 1399, ""sample_3_y"": 348, ""sample_1_time"": 371, ""sample_2_y"": 321, ""sample_3_x"": 470, ""sample_0_time"": 16, ""sample_1_y"": 286, ""sample_0_y"": 273, ""last_y"": 383, ""sample_4_y"": 383, ""first_y"": 273, ""sample_3_time"": 1033, ""last_time"": 1399, ""sample_2_x"": 496, ""sample_2_time"": 683, ""sample_4_x"": 441, ""count"": 76, ""sample_1_x"": 535, ""sample_0_x"": 554, ""last_x"": 441, ""first_time"": 16, ""first_x"": 554}",Q4 (270-360<U+00B0>),Q3 (180-270<U+00B0>),FALSE,TRUE,Formant,225,1.4320961999999895,1.4320961999999895,91.43209619999999,91.43209619999999,FALSE
164887,20,righth,1,yes,5,"""5-10""",41,225,225.9548413,2467,917,"{""sample_4_y"": 388, ""sample_4_x"": 446, ""first_x"": 552, ""sample_1_y"": 301, ""sample_3_x"": 472, ""sample_2_x"": 500, ""last_time"": 917, ""sample_1_x"": 526, ""sample_0_y"": 276, ""first_time"": 17, ""sample_3_y"": 359, ""sample_0_time"": 17, ""last_x"": 446, ""sample_2_time"": 450, ""sample_4_time"": 917, ""last_y"": 388, ""sample_2_y"": 328, ""sample_0_x"": 552, ""first_y"": 276, ""sample_3_time"": 700, ""sample_1_time"": 233, ""count"": 53}",Q3 (180-270<U+00B0>),Q3 (180-270<U+00B0>),TRUE,TRUE,Correct,225,0.9548412999999982,0.9548412999999982,0.9548412999999982,0.9548412999999982,TRUE
164887,20,righth,1,yes,5,"""5-10""",42,45,47.83878784,1999,901,"{""sample_2_time"": 468, ""sample_4_y"": 139, ""sample_0_y"": 252, ""last_time"": 901, ""sample_3_y"": 165, ""sample_1_x"": 616, ""first_x"": 580, ""sample_3_time"": 684, ""first_time"": 17, ""sample_3_x"": 656, ""sample_1_time"": 234, ""first_y"": 252, ""sample_2_x"": 638, ""sample_4_time"": 901, ""sample_4_x"": 679, ""sample_1_y"": 215, ""count"": 54, ""last_x"": 679, ""sample_2_y"": 185, ""sample_0_time"": 17, ""sample_0_x"": 580, ""last_y"": 139}",Q1 (0-90<U+00B0>),Q1 (0-90<U+00B0>),TRUE,TRUE,Correct,45,2.838787840000002,2.838787840000002,2.838787840000002,2.838787840000002,TRUE
164887,20,righth,1,yes,5,"""5-10""",43,45,45.95484125,2500,1250,"{""sample_3_y"": 179, ""sample_1_time"": 316, ""sample_2_time"": 633, ""first_x"": 582, ""sample_2_y"": 203, ""first_time"": 17, ""sample_1_y"": 224, ""last_x"": 682, ""sample_0_x"": 582, ""count"": 75, ""last_time"": 1250, ""sample_0_y"": 256, ""sample_1_x"": 615, ""last_y"": 144, ""sample_2_x"": 634, ""first_y"": 256, ""sample_4_y"": 144, ""sample_3_x"": 653, ""sample_0_time"": 17, ""sample_3_time"": 950, ""sample_4_x"": 682, ""sample_4_time"": 1250}",Q1 (0-90<U+00B0>),Q1 (0-90<U+00B0>),TRUE,TRUE,Correct,45,0.9548412500000012,0.9548412500000012,0.9548412500000012,0.9548412500000012,TRUE
164887,20,righth,1,yes,5,"""5-10""",44,135,140.2374761,2184,1833,"{""sample_2_y"": 223, ""sample_3_y"": 192, ""sample_3_x"": 477, ""first_x"": 553, ""sample_1_y"": 256, ""sample_0_time"": 16, ""first_y"": 260, ""first_time"": 16, ""count"": 63, ""sample_0_y"": 260, ""sample_4_x"": 433, ""sample_4_y"": 157, ""sample_3_time"": 1583, ""sample_1_x"": 544, ""sample_2_time"": 1322, ""last_x"": 433, ""sample_2_x"": 517, ""last_y"": 157, ""sample_0_x"": 553, ""sample_4_time"": 1833, ""sample_1_time"": 321, ""last_time"": 1833}",Q2 (90-180<U+00B0>),Q2 (90-180<U+00B0>),TRUE,TRUE,Correct,135,5.237476100000009,5.237476100000009,5.237476100000009,5.237476100000009,TRUE
164887,20,righth,1,yes,5,"""5-10""",45,45,49.00182658,1149,284,"{""sample_3_x"": 665, ""sample_4_y"": 136, ""count"": 13, ""sample_4_x"": 677, ""sample_2_y"": 175, ""first_time"": 84, ""sample_1_y"": 197, ""sample_0_x"": 586, ""first_y"": 254, ""last_x"": 677, ""sample_2_time"": 184, ""sample_0_y"": 254, ""sample_0_time"": 84, ""last_time"": 284, ""sample_3_y"": 156, ""sample_3_time"": 234, ""sample_4_time"": 284, ""sample_1_x"": 639, ""first_x"": 586, ""last_y"": 136, ""sample_1_time"": 134, ""sample_2_x"": 654}",Q1 (0-90<U+00B0>),Q1 (0-90<U+00B0>),TRUE,TRUE,Correct,45,4.0018265799999995,4.0018265799999995,4.0018265799999995,4.0018265799999995,TRUE
164887,20,righth,1,yes,5,"""5-10""",46,315,227.8387878,1417,1083,"{""sample_4_x"": 449, ""last_x"": 449, ""sample_2_y"": 343, ""first_y"": 281, ""sample_4_time"": 1083, ""sample_3_time"": 850, ""sample_2_time"": 517, ""sample_3_y"": 365, ""last_y"": 393, ""sample_4_y"": 393, ""count"": 60, ""sample_0_x"": 558, ""first_x"": 558, ""sample_2_x"": 500, ""sample_1_time"": 266, ""sample_1_x"": 532, ""sample_0_time"": 16, ""sample_1_y"": 313, ""first_time"": 16, ""sample_0_y"": 281, ""sample_3_x"": 478, ""last_time"": 1083}",Q4 (270-360<U+00B0>),Q3 (180-270<U+00B0>),FALSE,TRUE,Formant,225,2.8387878000000057,2.8387878000000057,87.1612122,87.1612122,FALSE
164887,20,righth,1,yes,5,"""5-10""",47,45,51.70983681,2233,1016,"{""sample_2_y"": 187, ""sample_4_x"": 669, ""sample_3_y"": 161, ""last_y"": 133, ""sample_3_x"": 652, ""sample_1_y"": 215, ""first_x"": 581, ""last_time"": 1016, ""sample_0_x"": 581, ""first_y"": 254, ""sample_4_y"": 133, ""sample_0_time"": 16, ""last_x"": 669, ""sample_4_time"": 1016, ""sample_0_y"": 254, ""sample_1_time"": 266, ""sample_2_x"": 634, ""sample_2_time"": 516, ""count"": 61, ""sample_3_time"": 766, ""sample_1_x"": 612, ""first_time"": 16}",Q1 (0-90<U+00B0>),Q1 (0-90<U+00B0>),TRUE,TRUE,Correct,45,6.709836809999999,6.709836809999999,6.709836809999999,6.709836809999999,TRUE
164887,20,righth,1,yes,5,"""5-10""",48,225,225.2377405,1867,1017,"{""sample_1_y"": 288, ""sample_0_time"": 16, ""last_y"": 387, ""sample_2_x"": 522, ""count"": 57, ""last_time"": 1017, ""sample_1_x"": 545, ""first_y"": 277, ""sample_0_x"": 557, ""sample_4_time"": 1017, ""sample_2_y"": 309, ""sample_3_x"": 466, ""sample_1_time"": 261, ""sample_3_y"": 358, ""sample_4_y"": 387, ""sample_3_time"": 783, ""first_time"": 16, ""sample_2_time"": 550, ""first_x"": 557, ""sample_4_x"": 444, ""sample_0_y"": 277, ""last_x"": 444}",Q3 (180-270<U+00B0>),Q3 (180-270<U+00B0>),TRUE,TRUE,Correct,225,0.23774050000000102,0.23774050000000102,0.23774050000000102,0.23774050000000102,TRUE
164887,20,righth,1,yes,5,"""5-10""",49,135,136.4086287,1317,2200,"{""sample_4_time"": 2200, ""first_time"": 17, ""sample_0_y"": 258, ""last_x"": 439, ""count"": 98, ""sample_1_time"": 800, ""sample_0_time"": 17, ""sample_1_x"": 560, ""sample_2_time"": 1333, ""sample_1_y"": 280, ""sample_3_y"": 193, ""sample_2_y"": 241, ""last_time"": 2200, ""last_y"": 147, ""sample_3_x"": 464, ""sample_4_y"": 147, ""sample_4_x"": 439, ""sample_0_x"": 553, ""sample_2_x"": 523, ""sample_3_time"": 1750, ""first_y"": 258, ""first_x"": 553}",Q2 (90-180<U+00B0>),Q2 (90-180<U+00B0>),TRUE,TRUE,Correct,135,1.4086287000000084,1.4086287000000084,1.4086287000000084,1.4086287000000084,TRUE
164887,20,righth,1,yes,5,"""5-10""",50,315,315.2397299,2774,2201,"{""last_x"": 684, ""sample_0_y"": 274, ""sample_4_y"": 385, ""sample_1_x"": 603, ""last_y"": 385, ""sample_0_x"": 578, ""count"": 118, ""sample_3_time"": 1717, ""sample_3_y"": 326, ""first_x"": 578, ""first_y"": 274, ""sample_1_y"": 289, ""sample_2_y"": 294, ""last_time"": 2200, ""sample_3_x"": 640, ""sample_2_time"": 1234, ""sample_1_time"": 534, ""sample_2_x"": 603, ""sample_4_x"": 684, ""first_time"": 17, ""sample_4_time"": 2200, ""sample_0_time"": 17}",Q4 (270-360<U+00B0>),Q4 (270-360<U+00B0>),TRUE,TRUE,Correct,315,0.23972989999998617,0.23972989999998617,0.23972989999998617,0.23972989999998617,TRUE
164887,20,righth,1,yes,5,"""5-10""",51,225,224.7622595,3916,1084,"{""sample_0_x"": 557, ""sample_2_y"": 315, ""first_time"": 17, ""sample_2_time"": 550, ""sample_1_y"": 291, ""sample_3_time"": 817, ""count"": 65, ""sample_4_y"": 386, ""sample_2_x"": 508, ""last_x"": 443, ""first_y"": 277, ""sample_4_time"": 1084, ""sample_0_y"": 277, ""first_x"": 557, ""last_time"": 1084, ""sample_1_time"": 283, ""sample_0_time"": 17, ""last_y"": 386, ""sample_3_x"": 475, ""sample_3_y"": 342, ""sample_4_x"": 443, ""sample_1_x"": 539}",Q3 (180-270<U+00B0>),Q3 (180-270<U+00B0>),TRUE,TRUE,Correct,225,0.23774050000000102,0.23774050000000102,0.23774050000000102,0.23774050000000102,TRUE
164887,20,righth,1,yes,5,"""5-10""",52,225,225.7131886,1807,1033,"{""sample_2_time"": 533, ""count"": 62, ""last_time"": 1033, ""sample_4_time"": 1033, ""sample_4_x"": 445, ""sample_2_x"": 505, ""sample_0_x"": 558, ""first_x"": 558, ""first_y"": 279, ""sample_3_x"": 470, ""sample_1_y"": 300, ""last_y"": 388, ""sample_2_y"": 322, ""sample_4_y"": 388, ""sample_1_x"": 532, ""sample_0_y"": 279, ""sample_3_time"": 782, ""sample_0_time"": 17, ""first_time"": 17, ""sample_3_y"": 354, ""sample_1_time"": 266, ""last_x"": 445}",Q3 (180-270<U+00B0>),Q3 (180-270<U+00B0>),TRUE,TRUE,Correct,225,0.7131885999999952,0.7131885999999952,0.7131885999999952,0.7131885999999952,TRUE
164887,20,righth,1,yes,5,"""5-10""",53,225,225.2397299,2033,983,"{""last_y"": 386, ""sample_3_y"": 347, ""last_time"": 983, ""sample_1_y"": 292, ""first_x"": 555, ""sample_2_time"": 500, ""sample_2_y"": 314, ""last_x"": 445, ""sample_4_x"": 445, ""sample_3_x"": 471, ""sample_1_x"": 533, ""sample_3_time"": 750, ""sample_0_x"": 555, ""sample_0_time"": 16, ""first_y"": 275, ""sample_2_x"": 510, ""sample_4_y"": 386, ""sample_4_time"": 983, ""sample_1_time"": 250, ""count"": 59, ""sample_0_y"": 275, ""first_time"": 16}",Q3 (180-270<U+00B0>),Q3 (180-270<U+00B0>),TRUE,TRUE,Correct,225,0.23972989999998617,0.23972989999998617,0.23972989999998617,0.23972989999998617,TRUE
164887,20,righth,1,yes,5,"""5-10""",54,225,226.1984817,1899,1084,"{""last_x"": 447, ""sample_4_y"": 388, ""sample_2_x"": 503, ""last_time"": 1084, ""first_x"": 557, ""sample_0_x"": 557, ""sample_1_x"": 532, ""sample_3_y"": 355, ""first_time"": 17, ""first_y"": 275, ""sample_2_y"": 321, ""sample_3_x"": 468, ""sample_0_time"": 17, ""sample_3_time"": 817, ""sample_4_x"": 447, ""last_y"": 388, ""sample_0_y"": 275, ""sample_2_time"": 551, ""count"": 65, ""sample_1_time"": 284, ""sample_1_y"": 295, ""sample_4_time"": 1084}",Q3 (180-270<U+00B0>),Q3 (180-270<U+00B0>),TRUE,TRUE,Correct,225,1.198481700000002,1.198481700000002,1.198481700000002,1.198481700000002,TRUE
164887,20,righth,1,yes,5,"""5-10""",55,225,223.8114614,2218,933,"{""sample_4_y"": 384, ""sample_1_y"": 297, ""first_y"": 271, ""sample_0_x"": 551, ""sample_0_time"": 17, ""sample_4_time"": 933, ""sample_2_y"": 324, ""sample_2_x"": 488, ""first_time"": 17, ""sample_0_y"": 271, ""sample_3_y"": 354, ""sample_4_x"": 441, ""count"": 56, ""first_x"": 551, ""last_x"": 441, ""sample_3_x"": 462, ""sample_1_time"": 250, ""last_time"": 933, ""sample_3_time"": 717, ""sample_1_x"": 518, ""sample_2_time"": 483, ""last_y"": 384}",Q3 (180-270<U+00B0>),Q3 (180-270<U+00B0>),TRUE,TRUE,Correct,225,1.188538599999987,1.188538599999987,1.188538599999987,1.188538599999987,TRUE
164887,20,righth,1,yes,5,"""5-10""",56,225,225.4774538,2183,967,"{""count"": 58, ""sample_2_x"": 473, ""sample_0_time"": 17, ""sample_4_y"": 387, ""sample_3_y"": 358, ""sample_2_y"": 333, ""last_x"": 445, ""first_time"": 17, ""sample_1_y"": 301, ""sample_1_time"": 250, ""sample_0_y"": 274, ""sample_0_x"": 554, ""sample_2_time"": 500, ""last_y"": 387, ""sample_3_time"": 734, ""sample_4_x"": 445, ""last_time"": 966, ""sample_3_x"": 457, ""sample_4_time"": 966, ""first_y"": 274, ""sample_1_x"": 510, ""first_x"": 554}",Q3 (180-270<U+00B0>),Q3 (180-270<U+00B0>),TRUE,TRUE,Correct,225,0.47745380000000637,0.47745380000000637,0.47745380000000637,0.47745380000000637,TRUE
164887,20,righth,1,yes,5,"""5-10""",57,45,45.2397299,2883,1934,"{""sample_1_y"": 239, ""first_time"": 73, ""last_y"": 146, ""sample_2_y"": 212, ""last_time"": 1934, ""count"": 85, ""sample_2_time"": 1234, ""first_x"": 573, ""sample_3_y"": 171, ""sample_4_time"": 1934, ""last_x"": 683, ""sample_1_time"": 450, ""first_y"": 260, ""sample_0_time"": 73, ""sample_3_x"": 658, ""sample_4_y"": 146, ""sample_2_x"": 618, ""sample_4_x"": 683, ""sample_1_x"": 590, ""sample_0_x"": 573, ""sample_0_y"": 260, ""sample_3_time"": 1584}",Q1 (0-90<U+00B0>),Q1 (0-90<U+00B0>),TRUE,TRUE,Correct,45,0.23972990000000038,0.23972990000000038,0.23972990000000038,0.23972990000000038,TRUE
164887,20,righth,1,yes,5,"""5-10""",58,135,139.9799996,2784,1466,"{""last_x"": 433, ""sample_2_x"": 505, ""last_time"": 1466, ""sample_0_x"": 554, ""sample_1_time"": 500, ""sample_4_y"": 156, ""sample_2_time"": 833, ""sample_4_x"": 433, ""first_y"": 260, ""sample_3_y"": 206, ""count"": 78, ""first_time"": 16, ""first_x"": 554, ""sample_2_y"": 228, ""sample_3_x"": 480, ""sample_0_time"": 16, ""sample_3_time"": 1149, ""sample_4_time"": 1466, ""sample_0_y"": 260, ""last_y"": 156, ""sample_1_x"": 538, ""sample_1_y"": 247}",Q2 (90-180<U+00B0>),Q2 (90-180<U+00B0>),TRUE,TRUE,Correct,135,4.9799996000000135,4.9799996000000135,4.9799996000000135,4.9799996000000135,TRUE
164887,20,righth,1,yes,5,"""5-10""",59,135,136.1984817,2016,1017,"{""sample_4_y"": 149, ""sample_3_y"": 189, ""sample_3_time"": 767, ""sample_4_time"": 1017, ""sample_0_x"": 556, ""sample_0_time"": 17, ""first_y"": 256, ""first_time"": 17, ""sample_0_y"": 256, ""last_y"": 149, ""sample_3_x"": 467, ""sample_1_time"": 267, ""sample_2_x"": 499, ""sample_1_x"": 527, ""sample_4_x"": 442, ""sample_1_y"": 230, ""count"": 61, ""first_x"": 556, ""last_time"": 1017, ""sample_2_y"": 214, ""sample_2_time"": 517, ""last_x"": 442}",Q2 (90-180<U+00B0>),Q2 (90-180<U+00B0>),TRUE,TRUE,Correct,135,1.198481700000002,1.198481700000002,1.198481700000002,1.198481700000002,TRUE
164887,20,righth,1,yes,5,"""5-10""",60,45,45.71318864,2283,484,"{""sample_3_y"": 153, ""sample_4_y"": 144, ""sample_4_x"": 683, ""last_time"": 484, ""sample_2_x"": 668, ""sample_2_time"": 250, ""sample_3_x"": 673, ""sample_1_time"": 134, ""sample_1_y"": 194, ""sample_1_x"": 632, ""last_y"": 144, ""sample_2_y"": 157, ""sample_4_time"": 484, ""sample_3_time"": 367, ""last_x"": 683, ""first_time"": 17, ""first_y"": 251, ""count"": 29, ""sample_0_time"": 17, ""first_x"": 577, ""sample_0_y"": 251, ""sample_0_x"": 577}",Q1 (0-90<U+00B0>),Q1 (0-90<U+00B0>),TRUE,TRUE,Correct,45,0.7131886399999985,0.7131886399999985,0.7131886399999985,0.7131886399999985,TRUE
164887,20,righth,1,yes,5,"""5-10""",61,135,141.654425,2117,2150,"{""sample_3_x"": 466, ""count"": 79, ""sample_0_time"": 16, ""last_y"": 160, ""last_time"": 2150, ""sample_1_y"": 255, ""sample_1_x"": 527, ""sample_3_y"": 185, ""sample_0_y"": 267, ""sample_3_time"": 1833, ""sample_0_x"": 552, ""sample_1_time"": 333, ""sample_4_x"": 430, ""sample_2_y"": 221, ""sample_2_x"": 503, ""sample_2_time"": 1505, ""first_y"": 267, ""first_time"": 16, ""sample_4_y"": 160, ""last_x"": 430, ""sample_4_time"": 2150, ""first_x"": 552}",Q2 (90-180<U+00B0>),Q2 (90-180<U+00B0>),TRUE,TRUE,Correct,135,6.654425000000003,6.654425000000003,6.654425000000003,6.654425000000003,TRUE
164887,20,righth,1,yes,5,"""5-10""",62,135,139.2190953,2346,1184,"{""sample_2_time"": 600, ""last_y"": 153, ""sample_2_y"": 223, ""sample_0_y"": 259, ""sample_1_y"": 246, ""sample_2_x"": 494, ""first_x"": 553, ""count"": 71, ""sample_1_time"": 300, ""sample_0_time"": 17, ""sample_3_x"": 458, ""last_x"": 433, ""first_y"": 259, ""last_time"": 1184, ""sample_4_time"": 1184, ""sample_4_y"": 153, ""first_time"": 17, ""sample_1_x"": 534, ""sample_4_x"": 433, ""sample_0_x"": 553, ""sample_3_y"": 191, ""sample_3_time"": 900}",Q2 (90-180<U+00B0>),Q2 (90-180<U+00B0>),TRUE,TRUE,Correct,135,4.219095299999992,4.219095299999992,4.219095299999992,4.219095299999992,TRUE
164887,20,righth,1,yes,5,"""5-10""",63,135,139.5453353,849,2284,"{""last_y"": 156, ""sample_4_time"": 2284, ""sample_4_x"": 435, ""sample_1_x"": 524, ""sample_4_y"": 156, ""last_time"": 2284, ""first_time"": 17, ""first_y"": 253, ""sample_2_time"": 1651, ""sample_2_x"": 489, ""sample_1_y"": 234, ""sample_1_time"": 1134, ""sample_0_y"": 253, ""sample_0_time"": 17, ""sample_3_x"": 459, ""sample_0_x"": 548, ""count"": 77, ""sample_3_y"": 198, ""first_x"": 548, ""sample_3_time"": 1967, ""last_x"": 435, ""sample_2_y"": 219}",Q2 (90-180<U+00B0>),Q2 (90-180<U+00B0>),TRUE,TRUE,Correct,135,4.545335300000005,4.545335300000005,4.545335300000005,4.545335300000005,TRUE
164887,20,righth,1,yes,5,"""5-10""",64,315,312.614056,2550,3167,"{""sample_0_y"": 273, ""sample_4_y"": 391, ""sample_4_time"": 3167, ""sample_3_time"": 2517, ""sample_1_time"": 734, ""sample_0_time"": 17, ""sample_1_x"": 506, ""sample_4_x"": 679, ""last_time"": 3167, ""count"": 159, ""last_x"": 679, ""sample_3_y"": 317, ""sample_1_y"": 315, ""sample_2_time"": 1851, ""first_y"": 273, ""first_x"": 555, ""sample_3_x"": 626, ""last_y"": 391, ""first_time"": 17, ""sample_2_y"": 300, ""sample_2_x"": 534, ""sample_0_x"": 555}",Q4 (270-360<U+00B0>),Q4 (270-360<U+00B0>),TRUE,TRUE,Correct,315,2.385943999999995,2.385943999999995,2.385943999999995,2.385943999999995,TRUE
164887,20,righth,1,yes,5,"""5-10""",65,135,137.385944,2332,1300,"{""last_y"": 151, ""sample_2_time"": 650, ""last_x"": 439, ""sample_0_x"": 552, ""sample_1_time"": 334, ""sample_1_y"": 220, ""sample_3_x"": 456, ""sample_3_time"": 967, ""sample_2_y"": 187, ""first_y"": 257, ""sample_2_x"": 476, ""sample_4_y"": 151, ""sample_1_x"": 516, ""sample_4_x"": 439, ""sample_4_time"": 1300, ""last_time"": 1300, ""sample_0_time"": 17, ""first_x"": 552, ""sample_3_y"": 167, ""count"": 76, ""sample_0_y"": 257, ""first_time"": 17}",Q2 (90-180<U+00B0>),Q2 (90-180<U+00B0>),TRUE,TRUE,Correct,135,2.385943999999995,2.385943999999995,2.385943999999995,2.385943999999995,TRUE
164887,20,righth,1,yes,5,"""5-10""",66,135,136.1984817,2300,1000,"{""count"": 60, ""sample_0_y"": 258, ""first_y"": 258, ""sample_1_y"": 208, ""first_x"": 549, ""sample_3_time"": 767, ""sample_4_x"": 442, ""sample_2_y"": 189, ""last_y"": 149, ""sample_1_x"": 507, ""last_x"": 442, ""sample_4_time"": 1000, ""sample_0_time"": 16, ""sample_3_x"": 457, ""sample_4_y"": 149, ""sample_0_x"": 549, ""first_time"": 16, ""sample_1_time"": 267, ""sample_2_time"": 516, ""sample_2_x"": 477, ""last_time"": 1000, ""sample_3_y"": 173}",Q2 (90-180<U+00B0>),Q2 (90-180<U+00B0>),TRUE,TRUE,Correct,135,1.198481700000002,1.198481700000002,1.198481700000002,1.198481700000002,TRUE
164887,20,righth,1,yes,5,"""5-10""",67,225,229.7244517,2250,950,"{""sample_1_x"": 530, ""sample_2_y"": 308, ""sample_1_time"": 250, ""sample_4_y"": 397, ""last_x"": 453, ""sample_0_y"": 268, ""sample_4_time"": 950, ""last_y"": 397, ""sample_3_x"": 475, ""first_time"": 16, ""first_x"": 550, ""sample_0_x"": 550, ""sample_3_y"": 357, ""sample_2_x"": 506, ""first_y"": 268, ""count"": 57, ""sample_0_time"": 16, ""sample_4_x"": 453, ""sample_2_time"": 483, ""sample_3_time"": 717, ""last_time"": 950, ""sample_1_y"": 285}",Q3 (180-270<U+00B0>),Q3 (180-270<U+00B0>),TRUE,TRUE,Correct,225,4.724451700000003,4.724451700000003,4.724451700000003,4.724451700000003,TRUE
164887,20,righth,1,yes,5,"""5-10""",68,315,316.4320962,1700,1167,"{""sample_2_x"": 641, ""last_time"": 1166, ""sample_2_time"": 600, ""sample_4_time"": 1166, ""sample_1_x"": 623, ""sample_4_x"": 687, ""first_y"": 274, ""last_y"": 383, ""last_x"": 687, ""sample_3_x"": 657, ""first_time"": 16, ""sample_3_y"": 335, ""sample_4_y"": 383, ""sample_3_time"": 883, ""count"": 70, ""sample_0_y"": 274, ""first_x"": 575, ""sample_0_time"": 16, ""sample_2_y"": 314, ""sample_1_time"": 299, ""sample_0_x"": 575, ""sample_1_y"": 298}",Q4 (270-360<U+00B0>),Q4 (270-360<U+00B0>),TRUE,TRUE,Correct,315,1.4320961999999895,1.4320961999999895,1.4320961999999895,1.4320961999999895,TRUE
164887,20,righth,1,yes,5,"""5-10""",69,135,137.5918667,1367,866,"{""sample_0_x"": 550, ""sample_2_time"": 449, ""first_x"": 550, ""sample_3_y"": 188, ""sample_4_x"": 437, ""sample_2_y"": 219, ""sample_4_time"": 866, ""first_time"": 16, ""last_x"": 437, ""sample_3_x"": 462, ""sample_1_time"": 232, ""last_time"": 866, ""sample_4_y"": 150, ""sample_0_time"": 16, ""sample_0_y"": 263, ""count"": 52, ""last_y"": 150, ""sample_2_x"": 488, ""sample_1_y"": 241, ""first_y"": 263, ""sample_3_time"": 666, ""sample_1_x"": 513}",Q2 (90-180<U+00B0>),Q2 (90-180<U+00B0>),TRUE,TRUE,Correct,135,2.591866699999997,2.591866699999997,2.591866699999997,2.591866699999997,TRUE
164887,20,righth,1,yes,5,"""5-10""",70,315,312.3648154,2149,1167,"{""first_time"": 17, ""sample_3_y"": 347, ""first_x"": 569, ""last_time"": 1167, ""sample_3_time"": 884, ""sample_1_y"": 290, ""sample_4_x"": 678, ""count"": 70, ""first_y"": 275, ""sample_0_y"": 275, ""sample_2_x"": 621, ""sample_1_time"": 300, ""sample_2_y"": 307, ""sample_4_y"": 391, ""last_y"": 391, ""last_x"": 678, ""sample_1_x"": 595, ""sample_2_time"": 600, ""sample_4_time"": 1167, ""sample_3_x"": 652, ""sample_0_time"": 17, ""sample_0_x"": 569}",Q4 (270-360<U+00B0>),Q4 (270-360<U+00B0>),TRUE,TRUE,Correct,315,2.6351846000000023,2.6351846000000023,2.6351846000000023,2.6351846000000023,TRUE
164887,20,righth,1,yes,5,"""5-10""",71,315,313.3223605,1983,816,"{""first_time"": 16, ""last_x"": 680, ""sample_0_x"": 581, ""count"": 49, ""sample_2_x"": 635, ""sample_4_time"": 816, ""last_y"": 389, ""sample_3_x"": 663, ""sample_1_time"": 216, ""sample_0_time"": 16, ""sample_4_y"": 389, ""sample_3_y"": 359, ""sample_2_time"": 416, ""sample_0_y"": 273, ""sample_3_time"": 616, ""sample_2_y"": 319, ""last_time"": 816, ""sample_1_y"": 297, ""first_x"": 581, ""first_y"": 273, ""sample_4_x"": 680, ""sample_1_x"": 610}",Q4 (270-360<U+00B0>),Q4 (270-360<U+00B0>),TRUE,TRUE,Correct,315,1.677639499999998,1.677639499999998,1.677639499999998,1.677639499999998,TRUE
164887,20,righth,1,yes,5,"""5-10""",72,135,144.6197278,2116,734,"{""sample_1_y"": 236, ""sample_2_x"": 477, ""count"": 44, ""last_x"": 426, ""first_x"": 547, ""sample_0_y"": 258, ""first_y"": 258, ""last_time"": 734, ""sample_0_time"": 17, ""sample_1_x"": 506, ""sample_4_time"": 734, ""sample_0_x"": 547, ""sample_2_time"": 384, ""sample_2_y"": 215, ""sample_4_y"": 168, ""sample_3_time"": 567, ""sample_3_y"": 191, ""sample_3_x"": 450, ""last_y"": 168, ""first_time"": 17, ""sample_1_time"": 201, ""sample_4_x"": 426}",Q2 (90-180<U+00B0>),Q2 (90-180<U+00B0>),TRUE,TRUE,Correct,135,9.619727799999993,9.619727799999993,9.619727799999993,9.619727799999993,TRUE
164887,20,righth,1,yes,5,"""5-10""",73,45,42.61405597,2116,1467,"{""first_y"": 260, ""last_time"": 1467, ""sample_1_y"": 250, ""sample_0_x"": 575, ""sample_4_x"": 689, ""sample_1_x"": 598, ""sample_4_time"": 1467, ""last_y"": 151, ""first_time"": 16, ""sample_3_x"": 668, ""count"": 83, ""sample_4_y"": 151, ""sample_2_y"": 218, ""sample_2_time"": 700, ""sample_2_x"": 632, ""sample_3_time"": 1050, ""sample_1_time"": 350, ""sample_0_y"": 260, ""sample_3_y"": 180, ""first_x"": 575, ""last_x"": 689, ""sample_0_time"": 16}",Q1 (0-90<U+00B0>),Q1 (0-90<U+00B0>),TRUE,TRUE,Correct,45,2.3859440299999974,2.3859440299999974,2.3859440299999974,2.3859440299999974,TRUE
164887,20,righth,1,yes,5,"""5-10""",74,225,221.1539699,1367,1316,"{""sample_0_time"": 16, ""sample_4_y"": 377, ""sample_4_x"": 437, ""sample_1_y"": 292, ""count"": 79, ""sample_2_y"": 314, ""sample_4_time"": 1316, ""sample_0_x"": 553, ""sample_0_y"": 273, ""sample_1_x"": 516, ""sample_3_y"": 340, ""first_y"": 273, ""first_x"": 553, ""sample_2_time"": 666, ""last_y"": 377, ""sample_1_time"": 333, ""sample_3_x"": 457, ""first_time"": 16, ""sample_3_time"": 1000, ""sample_2_x"": 482, ""last_x"": 437, ""last_time"": 1316}",Q3 (180-270<U+00B0>),Q3 (180-270<U+00B0>),TRUE,TRUE,Correct,225,3.8460301000000072,3.8460301000000072,3.8460301000000072,3.8460301000000072,TRUE
164887,20,righth,1,yes,5,"""5-10""",75,225,226.6776395,2384,1417,"{""sample_2_y"": 314, ""sample_3_time"": 1083, ""sample_0_y"": 274, ""sample_2_time"": 733, ""first_y"": 274, ""count"": 83, ""last_y"": 389, ""first_x"": 554, ""sample_1_time"": 350, ""last_x"": 448, ""sample_2_x"": 492, ""last_time"": 1417, ""first_time"": 16, ""sample_1_y"": 290, ""sample_4_y"": 389, ""sample_1_x"": 523, ""sample_0_time"": 16, ""sample_4_x"": 448, ""sample_3_y"": 349, ""sample_3_x"": 467, ""sample_4_time"": 1417, ""sample_0_x"": 554}",Q3 (180-270<U+00B0>),Q3 (180-270<U+00B0>),TRUE,TRUE,Correct,225,1.677639499999998,1.677639499999998,1.677639499999998,1.677639499999998,TRUE
164887,20,righth,1,yes,5,"""5-10""",76,225,226.1787592,2300,1501,"{""last_x"": 445, ""sample_1_y"": 281, ""sample_0_x"": 552, ""first_x"": 552, ""last_y"": 390, ""sample_2_time"": 784, ""sample_4_y"": 390, ""sample_3_x"": 457, ""sample_4_x"": 445, ""count"": 88, ""last_time"": 1500, ""sample_3_time"": 1150, ""sample_0_time"": 17, ""sample_3_y"": 357, ""sample_1_x"": 510, ""sample_4_time"": 1500, ""sample_1_time"": 417, ""first_time"": 17, ""sample_2_x"": 474, ""sample_2_y"": 320, ""first_y"": 265, ""sample_0_y"": 265}",Q3 (180-270<U+00B0>),Q3 (180-270<U+00B0>),TRUE,TRUE,Correct,225,1.1787592000000018,1.1787592000000018,1.1787592000000018,1.1787592000000018,TRUE
164887,20,righth,1,yes,5,"""5-10""",77,45,46.42026555,1966,3034,"{""last_y"": 142, ""sample_3_y"": 249, ""first_y"": 260, ""last_time"": 3034, ""sample_3_x"": 566, ""last_x"": 682, ""sample_1_time"": 701, ""sample_2_y"": 183, ""first_time"": 17, ""sample_2_x"": 457, ""first_x"": 554, ""sample_4_time"": 3034, ""count"": 167, ""sample_4_y"": 142, ""sample_3_time"": 2351, ""sample_0_x"": 554, ""sample_1_y"": 234, ""sample_1_x"": 489, ""sample_4_x"": 682, ""sample_0_time"": 17, ""sample_2_time"": 1401, ""sample_0_y"": 260}",Q1 (0-90<U+00B0>),Q1 (0-90<U+00B0>),TRUE,TRUE,Correct,45,1.4202655500000034,1.4202655500000034,1.4202655500000034,1.4202655500000034,TRUE
164887,20,righth,1,yes,5,"""5-10""",78,135,134.2868114,3450,1083,"{""sample_2_y"": 214, ""last_time"": 1083, ""sample_2_time"": 550, ""sample_0_y"": 263, ""last_y"": 144, ""sample_0_x"": 551, ""last_x"": 445, ""sample_4_y"": 144, ""sample_3_y"": 175, ""sample_4_time"": 1083, ""sample_1_time"": 284, ""sample_0_time"": 17, ""sample_2_x"": 509, ""first_y"": 263, ""sample_1_y"": 243, ""sample_3_x"": 480, ""first_x"": 551, ""sample_4_x"": 445, ""sample_3_time"": 816, ""sample_1_x"": 529, ""count"": 65, ""first_time"": 17}",Q2 (90-180<U+00B0>),Q2 (90-180<U+00B0>),TRUE,TRUE,Correct,135,0.7131885999999952,0.7131885999999952,0.7131885999999952,0.7131885999999952,TRUE
164887,20,righth,1,yes,5,"""5-10""",79,225,222.614056,1882,851,"{""sample_3_y"": 344, ""sample_0_x"": 540, ""sample_4_y"": 381, ""sample_4_x"": 439, ""sample_1_x"": 485, ""sample_1_time"": 218, ""sample_2_x"": 471, ""first_y"": 273, ""sample_0_y"": 273, ""sample_1_y"": 303, ""sample_2_y"": 316, ""last_time"": 851, ""sample_0_time"": 17, ""sample_3_time"": 651, ""first_x"": 540, ""last_y"": 381, ""count"": 51, ""first_time"": 17, ""sample_4_time"": 851, ""sample_2_time"": 434, ""last_x"": 439, ""sample_3_x"": 453}",Q3 (180-270<U+00B0>),Q3 (180-270<U+00B0>),TRUE,TRUE,Correct,225,2.385943999999995,2.385943999999995,2.385943999999995,2.385943999999995,TRUE
164887,20,righth,1,yes,5,"""5-10""",80,315,317.8864185,1047,1684,"{""sample_1_x"": 607, ""last_x"": 689, ""sample_4_time"": 1683, ""first_x"": 575, ""first_time"": 16, ""sample_1_time"": 349, ""sample_0_y"": 282, ""last_y"": 379, ""sample_2_y"": 329, ""first_y"": 282, ""sample_4_x"": 689, ""sample_0_x"": 575, ""sample_4_y"": 379, ""sample_3_y"": 343, ""sample_3_x"": 657, ""last_time"": 1683, ""sample_1_y"": 304, ""sample_2_time"": 684, ""sample_2_x"": 641, ""count"": 80, ""sample_0_time"": 16, ""sample_3_time"": 1319}",Q4 (270-360<U+00B0>),Q4 (270-360<U+00B0>),TRUE,TRUE,Correct,315,2.8864184999999907,2.8864184999999907,2.8864184999999907,2.8864184999999907,TRUE
164887,20,righth,1,yes,5,"""5-10""",81,45,48.36646066,2867,1717,"{""sample_2_y"": 206, ""sample_0_time"": 16, ""first_y"": 259, ""first_x"": 555, ""sample_3_time"": 1317, ""sample_0_y"": 259, ""sample_1_time"": 584, ""count"": 89, ""sample_4_time"": 1717, ""sample_4_x"": 676, ""sample_3_y"": 171, ""sample_3_x"": 658, ""sample_2_time"": 950, ""last_y"": 140, ""sample_4_y"": 140, ""first_time"": 16, ""sample_0_x"": 555, ""sample_1_y"": 227, ""last_time"": 1717, ""sample_2_x"": 632, ""sample_1_x"": 606, ""last_x"": 676}",Q1 (0-90<U+00B0>),Q1 (0-90<U+00B0>),TRUE,TRUE,Correct,45,3.3664606600000013,3.3664606600000013,3.3664606600000013,3.3664606600000013,TRUE
164887,20,righth,1,yes,5,"""5-10""",82,135,139.3250604,2500,1216,"{""sample_2_y"": 218, ""sample_3_y"": 187, ""sample_1_x"": 529, ""sample_3_time"": 933, ""count"": 70, ""sample_3_x"": 463, ""sample_2_time"": 650, ""last_x"": 436, ""sample_4_x"": 436, ""sample_1_y"": 246, ""last_time"": 1216, ""sample_4_y"": 156, ""first_y"": 266, ""first_x"": 553, ""sample_0_time"": 68, ""first_time"": 68, ""sample_2_x"": 492, ""sample_0_y"": 266, ""sample_0_x"": 553, ""sample_1_time"": 350, ""sample_4_time"": 1216, ""last_y"": 156}",Q2 (90-180<U+00B0>),Q2 (90-180<U+00B0>),TRUE,TRUE,Correct,135,4.325060400000012,4.325060400000012,4.325060400000012,4.325060400000012,TRUE
164887,20,righth,1,yes,5,"""5-10""",83,135,140.7582602,2149,351,"{""sample_0_time"": 17, ""sample_0_x"": 544, ""sample_1_time"": 101, ""sample_0_y"": 264, ""sample_4_y"": 159, ""sample_2_y"": 201, ""sample_3_time"": 267, ""sample_1_y"": 232, ""last_time"": 351, ""sample_2_x"": 466, ""first_y"": 264, ""count"": 21, ""last_x"": 433, ""sample_4_x"": 433, ""last_y"": 159, ""sample_3_x"": 445, ""sample_2_time"": 184, ""sample_1_x"": 497, ""sample_4_time"": 351, ""first_x"": 544, ""sample_3_y"": 178, ""first_time"": 17}",Q2 (90-180<U+00B0>),Q2 (90-180<U+00B0>),TRUE,TRUE,Correct,135,5.758260199999995,5.758260199999995,5.758260199999995,5.758260199999995,TRUE
164887,20,righth,1,yes,5,"""5-10""",84,315,313.8114614,1999,1418,"{""sample_3_x"": 646, ""sample_2_y"": 305, ""sample_3_y"": 338, ""sample_2_time"": 717, ""first_y"": 266, ""sample_1_time"": 367, ""sample_2_x"": 621, ""sample_4_x"": 682, ""first_time"": 17, ""sample_4_time"": 1417, ""first_x"": 574, ""sample_0_x"": 574, ""sample_3_time"": 1067, ""last_x"": 682, ""last_time"": 1417, ""sample_4_y"": 389, ""sample_0_y"": 266, ""sample_0_time"": 17, ""sample_1_y"": 285, ""last_y"": 389, ""count"": 85, ""sample_1_x"": 587}",Q4 (270-360<U+00B0>),Q4 (270-360<U+00B0>),TRUE,TRUE,Correct,315,1.1885386000000153,1.1885386000000153,1.1885386000000153,1.1885386000000153,TRUE
164887,20,righth,1,yes,5,"""5-10""",85,45,46.43209618,3100,1767,"{""first_time"": 16, ""sample_0_y"": 264, ""sample_3_x"": 655, ""sample_3_y"": 182, ""sample_3_time"": 1402, ""last_y"": 143, ""sample_2_time"": 950, ""sample_1_y"": 249, ""count"": 90, ""sample_2_x"": 642, ""last_time"": 1767, ""sample_4_y"": 143, ""sample_4_x"": 681, ""sample_0_x"": 576, ""sample_0_time"": 16, ""first_y"": 264, ""sample_1_time"": 566, ""last_x"": 681, ""sample_2_y"": 199, ""sample_1_x"": 595, ""sample_4_time"": 1767, ""first_x"": 576}",Q1 (0-90<U+00B0>),Q1 (0-90<U+00B0>),TRUE,TRUE,Correct,45,1.432096180000002,1.432096180000002,1.432096180000002,1.432096180000002,TRUE
164887,20,righth,1,yes,5,"""5-10""",86,315,318.591259,2234,1467,"{""first_y"": 274, ""sample_3_time"": 1083, ""sample_0_time"": 16, ""sample_3_y"": 352, ""sample_4_x"": 691, ""sample_1_y"": 292, ""sample_0_y"": 274, ""count"": 86, ""last_x"": 691, ""sample_2_y"": 323, ""sample_1_time"": 366, ""sample_4_y"": 378, ""sample_1_x"": 605, ""first_time"": 16, ""sample_3_x"": 674, ""sample_2_time"": 733, ""sample_0_x"": 576, ""first_x"": 576, ""last_time"": 1466, ""sample_2_x"": 639, ""last_y"": 378, ""sample_4_time"": 1466}",Q4 (270-360<U+00B0>),Q4 (270-360<U+00B0>),TRUE,TRUE,Correct,315,3.5912589999999796,3.5912589999999796,3.5912589999999796,3.5912589999999796,TRUE
164887,20,righth,1,yes,5,"""5-10""",87,315,317.385944,1833,1384,"{""sample_3_x"": 650, ""last_time"": 1384, ""count"": 83, ""sample_3_time"": 1050, ""sample_1_x"": 595, ""sample_2_time"": 701, ""first_time"": 17, ""sample_0_time"": 17, ""sample_1_time"": 351, ""sample_3_y"": 340, ""sample_4_x"": 689, ""sample_2_y"": 304, ""sample_2_x"": 612, ""sample_0_x"": 577, ""last_y"": 381, ""sample_4_y"": 381, ""first_y"": 270, ""sample_1_y"": 287, ""last_x"": 689, ""sample_4_time"": 1384, ""sample_0_y"": 270, ""first_x"": 577}",Q4 (270-360<U+00B0>),Q4 (270-360<U+00B0>),TRUE,TRUE,Correct,315,2.385943999999995,2.385943999999995,2.385943999999995,2.385943999999995,TRUE
164887,20,righth,1,yes,5,"""5-10""",88,225,222.614056,2084,1350,"{""sample_2_y"": 304, ""count"": 81, ""first_time"": 16, ""first_x"": 550, ""sample_2_x"": 468, ""last_y"": 381, ""sample_3_time"": 1016, ""first_y"": 263, ""sample_3_x"": 444, ""sample_1_time"": 350, ""sample_0_time"": 16, ""last_x"": 439, ""sample_2_time"": 683, ""sample_0_x"": 550, ""sample_3_y"": 334, ""last_time"": 1350, ""sample_1_y"": 275, ""sample_0_y"": 263, ""sample_1_x"": 510, ""sample_4_x"": 439, ""sample_4_y"": 381, ""sample_4_time"": 1350}",Q3 (180-270<U+00B0>),Q3 (180-270<U+00B0>),TRUE,TRUE,Correct,225,2.385943999999995,2.385943999999995,2.385943999999995,2.385943999999995,TRUE
164887,20,righth,1,yes,5,"""5-10""",89,315,313.8114614,2000,1067,"{""sample_3_x"": 655, ""sample_2_x"": 637, ""sample_2_y"": 309, ""last_time"": 1067, ""sample_3_time"": 817, ""sample_1_time"": 283, ""sample_2_time"": 550, ""sample_0_x"": 576, ""last_x"": 682, ""sample_4_y"": 389, ""last_y"": 389, ""sample_1_x"": 609, ""sample_3_y"": 331, ""count"": 64, ""sample_0_time"": 16, ""sample_1_y"": 291, ""sample_0_y"": 276, ""sample_4_time"": 1067, ""sample_4_x"": 682, ""first_x"": 576, ""first_time"": 16, ""first_y"": 276}",Q4 (270-360<U+00B0>),Q4 (270-360<U+00B0>),TRUE,TRUE,Correct,315,1.1885386000000153,1.1885386000000153,1.1885386000000153,1.1885386000000153,TRUE
164887,20,righth,1,yes,5,"""5-10""",90,45,44.52254622,2483,2350,"{""sample_4_time"": 2350, ""count"": 130, ""last_time"": 2350, ""first_y"": 264, ""last_x"": 685, ""sample_2_time"": 1283, ""sample_0_x"": 544, ""first_x"": 544, ""sample_0_time"": 17, ""sample_0_y"": 264, ""last_y"": 147, ""sample_4_y"": 147, ""sample_2_y"": 250, ""sample_1_x"": 477, ""sample_3_time"": 1817, ""sample_2_x"": 571, ""sample_1_time"": 551, ""sample_4_x"": 685, ""first_time"": 17, ""sample_1_y"": 219, ""sample_3_x"": 641, ""sample_3_y"": 207}",Q1 (0-90<U+00B0>),Q1 (0-90<U+00B0>),TRUE,TRUE,Correct,45,0.4774537799999976,0.4774537799999976,0.4774537799999976,0.4774537799999976,TRUE
164887,20,righth,1,yes,5,"""5-10""",91,45,47.63518458,1917,683,"{""sample_4_time"": 683, ""sample_0_x"": 576, ""count"": 41, ""last_y"": 141, ""sample_1_y"": 245, ""sample_3_x"": 656, ""sample_1_time"": 183, ""sample_0_time"": 16, ""sample_1_x"": 598, ""last_x"": 678, ""sample_2_x"": 624, ""first_time"": 16, ""sample_0_y"": 267, ""last_time"": 683, ""sample_3_y"": 167, ""first_x"": 576, ""sample_2_y"": 211, ""sample_4_y"": 141, ""sample_3_time"": 517, ""sample_2_time"": 350, ""first_y"": 267, ""sample_4_x"": 678}",Q1 (0-90<U+00B0>),Q1 (0-90<U+00B0>),TRUE,TRUE,Correct,45,2.6351845800000007,2.6351845800000007,2.6351845800000007,2.6351845800000007,TRUE
